participant_id,trial_id,block,border_color,dominant,figure,is_color_change,is_figure_change,is_first,is_update,is_correct,event_fixation,event_stimulus_on,event_stimulus_off,event_Trial_Offset,event_Trial_Onset,trial_mean,trial_max,trial_max_latency,trial_min,trial_min_latency,first_bin,last_bin,valid_blinks,blinks_mean
206993057,2,b_0,blue,blue,Y,no_color_change,figure_change,not_first,update,correct,109,1117,3122,2700,0,-9.40068886978946,13.4428594438259,300,-31.2510066738097,2175,0,-28.7840430821376,1,125
206993057,3,b_0,blue,blue,X,no_color_change,figure_change,not_first,update,correct,24,1031,3036,2550,0,-8.58333345554991,11.784497299584,925,-28.4519705956689,625,-4.92707173803545,6.50860315087375,0,NaN
206993057,4,b_0,blue,blue,Y,no_color_change,figure_change,not_first,update,correct,16,1023,3027,2850,0,-3.62271188474184,15.7002283229234,1975,-30.0682511797854,1725,-8.16118440103403,-22.1343367140102,0,NaN
206993057,5,b_0,blue,blue,X,no_color_change,figure_change,not_first,update,correct,6,1013,3018,2600,0,2.14959892327519,35.6258871301004,1750,-22.3472339508058,900,-2.35442082756886,3.30937707745656,1,125
206993057,6,b_0,blue,blue,Y,no_color_change,figure_change,not_first,update,correct,16,1022,3027,2775,0,34.0990151919008,78.3466751728176,1675,-13.3257447979935,1225,17.110472178769,36.1951287720555,0,NaN
206993057,8,b_1,blue,blue,Y,no_color_change,figure_change,not_first,update,correct,22,1030,3035,2525,0,4.7018651435247,56.7463475846614,525,-20.0923672943701,2150,15.3290843275359,-0.702057591049382,1,150
206993057,9,b_1,red,blue,X,color_change,figure_change,not_first,no_update,correct,12,1018,3023,2400,0,18.4056511140252,56.2333483270475,1500,-11.2861146673125,900,0,21.3212922274892,1,175
206993057,10,b_1,red,blue,Y,no_color_change,figure_change,not_first,no_update,correct,22,1029,3034,2550,0,-0.546882465669218,48.2726782010853,2025,-29.5929926986562,1075,-0.840577857325471,12.1178868717861,0,NaN
206993057,11,b_1,red,blue,X,no_color_change,figure_change,not_first,no_update,correct,9,1017,3021,2675,0,20.2622861881498,69.1052083583445,1200,-16.8616263104933,1825,14.7392983199055,42.2568752469282,0,NaN
206993057,12,b_1,red,blue,X,no_color_change,no_figure_change,not_first,no_update,correct,22,1029,3035,2500,0,-9.14322708979094,23.9610653884417,950,-28.6976952759941,325,3.47291308673236,-10.766369720539,0,NaN
206993057,13,b_1,red,blue,X,no_color_change,no_figure_change,not_first,no_update,correct,69,1075,3081,2575,0,-21.1137893961083,-0.436456344663185,175,-42.0119085113465,100,-2.28348466506752,-13.0636876978719,1,125
206993057,14,b_1,red,blue,X,no_color_change,no_figure_change,not_first,no_update,correct,41,1048,3053,2550,0,-6.17670347070772,36.6193277652283,1825,-31.8484071910859,1025,24.2297346701966,2.06092889274304,0,NaN
206993057,16,b_2,red,blue,X,color_change,figure_change,not_first,no_update,correct,387,1395,3400,1900,0,39.8888551686929,86.2426198752966,1100,-0.047591458367819,125,6.78097813092019,26.9128547517887,0,NaN
206993057,17,b_2,blue,blue,Y,color_change,figure_change,not_first,update,correct,21,1027,3033,2475,0,-16.0526101267662,14.9210213196452,1475,-43.1750119272752,2100,-7.80690459904237,-27.1140017589138,1,125
206993057,18,b_2,blue,blue,X,no_color_change,figure_change,not_first,update,correct,236,1243,3248,2475,0,-1.11035352382253,36.9462751843001,1550,-33.6074792276561,550,-21.2019124255231,1.45765790448358,0,NaN
206993057,19,b_2,blue,blue,Y,no_color_change,figure_change,not_first,update,correct,22,1030,3039,2725,0,13.6171430344501,62.6314786077566,2000,-18.9796583554899,1575,32.3906300928422,28.8686126149765,0,NaN
206993057,20,b_2,red,blue,X,color_change,figure_change,not_first,no_update,correct,148,1154,3159,3100,0,-2.16408123449073,33.994062617957,1475,-33.1786077417205,1600,-31.7110950151155,25.055854238291,0,NaN
206993057,21,b_2,blue,blue,X,color_change,no_figure_change,not_first,update,correct,21,1028,3034,2800,0,0.55483023313225,35.0652707339582,1700,-27.2672446786831,575,10.8296896927081,7.0827734635821,0,NaN
206993057,22,b_2,blue,blue,X,no_color_change,no_figure_change,not_first,update,correct,22,1029,3033,2750,0,-6.48051474663262,23.685038672775,1850,-35.1791788499218,1550,-15.8907073061578,2.58698804630929,0,NaN
206993057,23,b_2,blue,blue,X,no_color_change,no_figure_change,not_first,update,correct,18,1024,3029,2450,0,-12.7483305052833,11.1392047031581,1100,-49.4738289025348,1700,-9.40539097380643,4.36480138726247,0,NaN
206993057,24,b_2,blue,blue,X,no_color_change,no_figure_change,not_first,update,correct,5,1011,3015,2275,0,-16.8664055861422,0.240483506127447,1025,-52.1075266454504,1850,-29.18297865068,-28.0799284164833,0,NaN
206993057,25,b_2,blue,blue,Y,no_color_change,figure_change,not_first,update,correct,20,1028,3033,2500,0,3.25169769291018,41.0312897236184,775,-31.1815548061057,1150,11.7173693620451,-0.770788908907392,0,NaN
206993057,27,b_3,blue,blue,Y,no_color_change,no_figure_change,not_first,update,correct,26,1032,3039,3050,0,6.89313738249008,49.4579518744803,1850,-26.2890492988498,1575,28.5785618542413,-24.5134857017008,0,NaN
206993057,28,b_3,blue,blue,Y,no_color_change,no_figure_change,not_first,update,correct,12,1018,3023,2625,0,2.49314856522369,47.4303541816113,1125,-32.7237404898329,600,-5.65538535295623,14.8776312282315,0,NaN
206993057,29,b_3,red,blue,X,color_change,figure_change,not_first,no_update,correct,22,1029,3034,2275,0,-2.70036440947991,34.8449061394816,1675,-35.8845115105385,700,-15.3002618406097,23.2713612228938,0,NaN
206993057,31,b_0,red,blue,Y,color_change,no_figure_change,not_first,no_update,correct,179,1185,3189,1375,0,74.8684667781833,101.034151822289,1225,-6.09583109009621,1350,-0.481496219657785,-1.04468528358419,0,NaN
206993057,32,b_0,red,blue,Y,no_color_change,no_figure_change,not_first,no_update,correct,128,1136,3141,2675,0,-0.90961847425082,6.39732451179597,800,-18.5227261353058,900,5.16104977629195,-0.399121182699915,1,150
206993057,33,b_0,blue,blue,X,color_change,figure_change,not_first,update,correct,21,1028,3034,2325,0,-17.860052437213,8.43386422750447,500,-52.3612210281405,1350,-3.42571241477789,-2.64028495371697,0,NaN
206993057,34,b_0,red,blue,X,color_change,no_figure_change,not_first,no_update,correct,34,1042,3047,2375,0,1.60697269192304,13.1820408334789,1050,-26.158692971478,825,4.42977715851831,-20.95844555952,2,137.5
206993057,36,b_1,red,blue,Y,color_change,no_figure_change,not_first,no_update,correct,53,1059,3064,1650,0,64.0164362315027,108.941128494843,1075,-2.17871316179469,300,-2.04046110541968,59.8071930854079,0,NaN
206993057,37,b_1,blue,blue,Y,color_change,no_figure_change,not_first,update,correct,8,1016,3021,1975,0,49.8074788793006,87.8801561503375,1925,-13.4437462052882,400,31.0323588915167,73.1524000113978,0,NaN
206993057,38,b_1,red,blue,Y,color_change,no_figure_change,not_first,no_update,correct,38,1044,3049,2175,0,-5.67459341960042,12.6291190548831,2175,-46.9434452771076,600,-0.692352460088145,12.6291190548831,1,225
206993057,39,b_1,blue,blue,X,color_change,figure_change,not_first,update,correct,30,1039,3045,2500,0,-19.4355597297666,6.35020598473477,1000,-49.4952256251397,1625,-11.4834094465557,-26.2859515217322,0,NaN
206993057,40,b_1,blue,blue,X,no_color_change,no_figure_change,not_first,update,correct,18,1025,3031,2100,0,51.472455721671,107.769849986303,1475,-2.66099015574382,1625,39.2222107731398,8.21569401126422,0,NaN
206993057,41,b_1,blue,blue,Y,no_color_change,figure_change,not_first,update,correct,5,1012,0,225,0,2.29193935751463,5.64164206015313,200,-0.806729396449541,50,-0.806729396449541,1.85861330913463,0,NaN
206993057,42,b_1,red,blue,X,color_change,figure_change,not_first,no_update,correct,1790,2798,4803,625,0,45.5486136076353,86.6331133814986,100,-0.323549535549859,225,5.14269810161079,57.595760225441,0,NaN
206993057,43,b_1,blue,blue,Y,color_change,figure_change,not_first,update,correct,170,1178,3182,1050,0,NaN,NaN,25,NaN,25,NaN,NaN,0,NaN
206993057,44,b_1,red,blue,Y,color_change,no_figure_change,not_first,no_update,correct,146,1154,3159,1450,0,-8.86446318105214,3.39453846386728,600,-29.7358289687465,300,-11.2645444178701,-10.4352729254337,2,175
206993057,45,b_1,red,blue,X,no_color_change,figure_change,not_first,no_update,correct,375,1382,3388,1275,0,NaN,NaN,25,NaN,25,NaN,NaN,0,NaN
206993057,46,b_1,red,blue,Y,no_color_change,figure_change,not_first,no_update,correct,13,1020,3027,2175,0,-4.23931596414585,12.8778424223086,1675,-26.5805244698562,1025,-9.29864829744146,-11.8696622158864,1,125
206993057,47,b_1,red,blue,X,no_color_change,figure_change,not_first,no_update,correct,20,1027,3032,2150,0,10.7837793408185,31.5247571265953,725,-24.33416850867,1650,-11.6061264929261,24.8253359271952,0,NaN
206993057,48,b_1,blue,blue,X,color_change,no_figure_change,not_first,update,correct,22,1029,3033,1025,0,1.36674904646998,14.9065929789056,475,-25.4523753924392,950,-9.02610207311696,7.97177032251369,1,250
206993057,49,b_1,red,blue,X,color_change,no_figure_change,not_first,no_update,correct,22,1031,3035,2250,0,-5.95406320857427,5.23983199721779,800,-19.0351878438751,2200,-7.14558011788731,-8.09817551118681,1,300
206993057,51,b_2,blue,blue,Y,no_color_change,no_figure_change,not_first,update,correct,24,1032,3036,275,0,4.52187539595209,28.3425116317333,50,-36.8823632707754,275,28.3425116317333,-22.5382727924228,0,NaN
206993057,52,b_2,blue,blue,X,no_color_change,figure_change,not_first,update,correct,16,1025,3029,2500,0,-2.90584931069943,9.13471242143478,1600,-33.9656260726586,1125,0.514233335947353,-31.0059561076136,1,225
206993057,53,b_2,blue,blue,Y,no_color_change,figure_change,not_first,update,correct,5,1013,3019,950,0,7.33462462336259,46.4314595083943,850,-36.4426994064724,525,0.00203437069285428,39.9748755219432,0,NaN
206993057,54,b_2,blue,blue,Y,no_color_change,no_figure_change,not_first,update,correct,14,1020,3025,2650,0,0.896242903143801,7.11991007741119,1125,-8.07882681926257,1375,1.36130038830208,5.58040943688721,0,NaN
206993057,55,b_2,red,blue,Y,color_change,no_figure_change,not_first,no_update,correct,38,1045,3050,2550,0,10.8340978061415,21.5137873829872,900,-5.88983630288456,1000,1.20504061694102,4.20465799858832,2,137.5
206993057,56,b_2,blue,blue,Y,color_change,no_figure_change,not_first,update,correct,14,1022,3027,2475,0,25.2080459688201,37.4931207044399,2150,-2.51638232245018,775,28.0976028054727,28.58619277386,0,NaN
206993057,57,b_2,blue,blue,X,no_color_change,figure_change,not_first,update,correct,21,1028,3033,2275,0,5.82632370947471,17.7012694176562,1950,-17.4924826958182,625,8.89785025445882,11.3106839027963,1,175
206993057,58,b_2,blue,blue,X,no_color_change,no_figure_change,not_first,update,correct,12,1019,3025,2050,0,-2.63327608533325,5.64573944786336,750,-25.6994894618413,1800,0.781027711201148,-6.38601356547971,1,225
206993057,59,b_2,red,blue,Y,color_change,figure_change,not_first,no_update,correct,24,1030,3035,2300,0,-10.0673857297105,1.27557735742009,1150,-40.9575484682133,1600,-4.99797460625024,-29.4279494721355,1,225
206993057,60,b_2,blue,blue,Y,color_change,no_figure_change,not_first,update,correct,11,1017,3023,2175,0,3.6899751956229,21.6659497671635,1725,-19.0668414079235,100,-8.88720413509552,13.3517377500097,0,NaN
206993057,61,b_2,blue,blue,X,no_color_change,figure_change,not_first,update,correct,21,1029,3034,2575,0,-16.951721285762,1.91119201844296,1600,-46.7478664346673,575,-8.98376004639988,-13.1687648959659,0,NaN
206993057,62,b_2,red,blue,Y,color_change,figure_change,not_first,no_update,correct,9,1016,3022,2150,0,-3.30868779813795,5.46196208416261,275,-17.9029883322605,875,-0.916451488000547,-6.84897047181468,2,237.5
206993057,64,b_3,red,blue,X,color_change,no_figure_change,not_first,no_update,correct,416,1423,3428,1975,0,48.141461715677,68.7812183910739,500,2.48829371355821,1950,12.8489918339133,34.7324249489376,0,NaN
206993057,65,b_3,blue,blue,X,color_change,no_figure_change,not_first,update,correct,6,1013,3018,2450,0,8.99854728718592,15.9089552093733,450,-7.29463614992508,1100,6.78698035055466,14.0500962963066,1,150
206993057,66,b_3,red,blue,Y,color_change,figure_change,not_first,no_update,correct,16,1023,3029,2750,0,-2.15740253624862,4.14267834793492,1625,-21.471021945749,2050,-2.22394329545595,-6.06252865586934,1,125
206993057,67,b_3,red,blue,X,no_color_change,figure_change,not_first,no_update,correct,21,1029,3034,2175,0,-1.87028378687457,4.23307454293264,650,-14.0112093691749,1300,-10.5727071316944,-4.69864621448431,1,125
206993057,68,b_3,red,blue,Y,no_color_change,figure_change,not_first,no_update,correct,22,1029,3034,2300,0,0.866005752380156,6.40499371959423,1525,-13.8454573856934,1150,4.25307803643273,1.70571995128701,0,NaN
206993057,69,b_3,blue,blue,X,color_change,figure_change,not_first,update,correct,22,1030,3035,2475,0,5.5013916343252,11.5100481139493,2075,-14.2452711206284,1425,0.984551477632252,2.15251558403573,2,212.5
206993057,70,b_3,red,blue,Y,color_change,figure_change,not_first,no_update,correct,20,1027,3032,1925,0,0.411101778207825,7.19526278411797,850,-16.4845914710295,1075,1.86475152103404,-3.11600766837456,2,137.5
206993057,71,b_3,red,blue,Y,no_color_change,no_figure_change,not_first,no_update,correct,130,1138,3142,2250,0,0.949552083948013,7.76977522456166,100,-17.0107159931436,725,-2.14786282595936,3.5786053272906,1,125
206993057,72,b_3,blue,blue,Y,color_change,no_figure_change,not_first,update,correct,31,1038,3043,2400,0,-6.07884112737351,0.486231184721447,975,-18.2256964732174,475,-12.6194009336686,-2.14567657653262,0,NaN
206993057,73,b_3,blue,blue,X,no_color_change,figure_change,not_first,update,correct,22,1029,3034,1625,0,-3.44581387879168,6.67723740285786,725,-27.0271997994485,975,-0.365630483830529,-0.783404361995466,0,NaN
206993057,74,b_3,red,blue,Y,color_change,figure_change,not_first,no_update,correct,142,1150,3155,2000,0,17.2360515685986,29.0015379864669,125,-10.6513807400923,850,14.5780430696171,3.8971317901503,1,125
206993057,75,b_3,red,blue,X,no_color_change,figure_change,not_first,no_update,correct,20,1028,3033,2300,0,15.7295511646714,32.0386351366969,1750,-8.30693434528135,1975,-6.53048430071574,7.25968213560293,0,NaN
206993057,76,b_3,blue,blue,X,color_change,no_figure_change,not_first,update,correct,21,1028,3035,1875,0,-9.75781941361651,0.424657200019524,1800,-30.3892792660909,1075,-6.11147708973796,-7.5478212072415,0,NaN
206993057,77,b_3,red,blue,Y,color_change,figure_change,not_first,no_update,correct,18,1025,3031,2250,0,-5.16310514196292,5.12013868308114,675,-25.4628039427461,1825,-15.0523967595974,-15.4572610835484,0,NaN
206993057,78,b_3,blue,blue,Y,color_change,no_figure_change,not_first,update,correct,21,1029,3035,2575,0,14.4262321315644,23.1790863971021,2025,-13.0642391738998,75,-13.0642391738998,15.2575388704632,1,150
206993057,79,b_3,blue,blue,X,no_color_change,figure_change,not_first,update,correct,127,1135,3141,2900,0,-3.00955056159477,2.50734081885493,2125,-19.4893862977885,750,-0.477275166082975,-2.48209913275907,2,187.5
206993057,80,b_3,blue,blue,Y,no_color_change,figure_change,not_first,update,correct,4,1012,3016,2800,0,-4.26535120143512,14.2230598705988,1625,-25.6798755736813,2175,-0.948367997944473,-1.4574717293673,0,NaN
206993057,81,b_3,blue,blue,X,no_color_change,figure_change,not_first,update,correct,16,1023,3028,2250,0,-1.90886018933905,10.5733875168249,825,-23.23551253423,675,3.82988927796028,-20.2610502864746,0,NaN
206993057,82,b_3,red,blue,Y,color_change,figure_change,not_first,no_update,correct,186,1194,3198,2275,0,-6.22747294898411,4.70410256029648,1325,-24.6785713402159,1525,-7.80396871930749,-8.29814131728232,2,125
206993057,83,b_3,blue,blue,Y,color_change,no_figure_change,not_first,update,correct,185,1191,3197,850,0,11.8478932543902,23.4348863277096,200,-18.8639956313052,75,-18.8639956313052,18.778058804932,0,NaN
206993057,84,b_3,red,blue,X,color_change,figure_change,not_first,no_update,correct,143,1151,3156,2125,0,-2.51595257570367,3.68092158754263,875,-22.5699449683516,2125,-8.91950414051716,-5.46611842869422,1,175
206993057,86,b_0,blue,red,X,color_change,figure_change,not_first,no_update,correct,47,551,1554,3325,0,1.40393465726349,6.214064463775,600,-2.99916377203139,100,0.260146067749304,-1.66169383170541,0,NaN
206993057,87,b_0,red,red,X,color_change,no_figure_change,not_first,update,correct,6,509,1512,3200,0,1.24604268250197,6.61897677121374,225,-2.17347199471003,1850,1.164695450925,-0.296308541600894,3,175
206993057,88,b_0,blue,red,X,color_change,no_figure_change,not_first,no_update,correct,11,513,1516,3400,0,2.51451101307629,5.65350870045393,1400,-0.309006828236079,1575,2.23537921343032,1.86707817434002,0,NaN
206993057,89,b_0,red,red,X,color_change,no_figure_change,not_first,update,correct,4,508,1510,2350,0,-1.70500290297334,3.16696878843409,850,-9.8997564915019,2000,0.663227253194506,-1.90410803281685,1,250
206993057,90,b_0,blue,red,X,color_change,no_figure_change,not_first,no_update,correct,12,516,1519,3025,0,0.132906304038618,6.82251316575888,1325,-11.2143572240328,400,-1.5215018801067,2.61347988267032,2,212.5
206993057,91,b_0,blue,red,Y,no_color_change,figure_change,not_first,no_update,correct,3,506,1510,2900,0,-4.40071996973712,3.21871196359298,1500,-17.7815218759931,1050,-0.0876598653323839,-5.03138846751129,1,250
206993057,92,b_0,red,red,X,color_change,figure_change,not_first,update,correct,8,511,1513,3075,0,0.847492124852466,7.39039781836256,175,-13.9181557998938,1300,-1.3009602686179,1.56925021348412,2,212.5
206993057,93,b_0,red,red,Y,no_color_change,figure_change,not_first,update,correct,12,515,1517,2275,0,-1.97343489877212,4.84163779040436,575,-15.8655575236012,1850,-13.4615549851906,-4.05630165352659,1,225
206993057,94,b_0,blue,red,Y,color_change,no_figure_change,not_first,no_update,correct,80,584,1587,3050,0,6.11967545818613,12.5212582774418,1625,-3.08603756337624,1550,-0.688236732177586,6.71641989349602,1,300
206993057,96,b_1,red,red,X,no_color_change,figure_change,not_first,update,correct,10,513,1516,1425,0,-10.0112540100374,0.403564643233452,1325,-31.393773607939,725,-2.8295748289443,-0.909057507665352,0,NaN
206993057,97,b_1,blue,red,Y,color_change,figure_change,not_first,no_update,correct,11,515,1518,2000,0,-1.96386694485919,4.96720786667763,1300,-8.78328735770349,1925,0.545206779943754,-2.42074263418894,1,275
206993057,98,b_1,red,red,X,color_change,figure_change,not_first,update,correct,24,528,1531,1600,0,16.3476143543203,26.6758622713633,575,-1.91933791646184,75,18.8092181045804,22.757800978745,1,125
206993057,99,b_1,blue,red,Y,color_change,figure_change,not_first,no_update,correct,13,516,1519,1125,0,-4.79128115909182,5.2185271164013,275,-18.7160443932088,525,-1.67807497957945,-12.3539673052319,0,NaN
206993057,100,b_1,blue,red,Y,no_color_change,no_figure_change,not_first,no_update,correct,59,563,1565,1500,0,-2.93419091082733,4.0675796842437,425,-14.9004273915006,950,-2.77506408439309,-3.12033510024173,1,150
206993057,101,b_1,red,red,X,color_change,figure_change,not_first,update,correct,2,505,0,1825,0,-2.47560300643697,3.43721121571106,550,-6.49046974584002,1625,-0.066297420243373,-2.43702639376613,0,NaN
206993057,102,b_1,blue,red,Y,color_change,figure_change,not_first,no_update,correct,648,1153,2157,1625,0,1.28904871738866,9.17408707401444,825,-11.7937490793277,1425,-1.0702657123845,-1.07559926244622,0,NaN
206993057,103,b_1,blue,red,Y,no_color_change,no_figure_change,not_first,no_update,correct,2,506,0,1875,0,-2.63415454994975,1.39547152472282,275,-7.78425135019164,975,-4.1589427479849,-0.785742851551248,2,125
206993057,104,b_1,blue,red,X,no_color_change,figure_change,not_first,no_update,correct,570,1074,2076,2425,0,-18.8708239001398,5.77631464642602,1025,-41.6865801494451,1500,-27.2036543131761,-28.2401494710555,0,NaN
206993057,105,b_1,blue,red,X,no_color_change,no_figure_change,not_first,no_update,correct,11,515,1517,2775,0,-8.82408096586475,11.5690388307926,1425,-32.5411977560721,725,-11.8742327384105,-4.27668359603275,1,125
206993057,106,b_1,blue,red,Y,no_color_change,figure_change,not_first,no_update,correct,7,510,1513,1525,0,-6.28186640630258,4.49587936608684,950,-22.8913362556281,450,-1.03883610686871,-1.7092448975544,0,NaN
206993057,108,b_2,red,red,Y,no_color_change,figure_change,not_first,update,correct,61,566,1568,1825,0,23.3253085479797,49.0922085166828,1850,1.59369224380532,975,24.8161158608202,49.0922085166828,0,NaN
206993057,109,b_2,blue,red,Y,color_change,no_figure_change,not_first,no_update,correct,7,510,1513,2175,0,20.7380100361217,43.7173225237211,275,-7.10134502991049,1425,2.22669709873985,-3.04692121031391,0,NaN
206993057,110,b_2,blue,red,X,no_color_change,figure_change,not_first,no_update,correct,11,514,1517,2275,0,9.42407874102474,26.5748860555011,1875,-18.1096751860613,975,-16.4416142618127,12.5007211677148,0,NaN
206993057,111,b_2,blue,red,X,no_color_change,no_figure_change,not_first,no_update,correct,61,564,1567,2225,0,13.9410150928799,29.579260128753,50,-12.4390929821665,625,29.579260128753,22.6600089258967,0,NaN
206993057,113,b_3,blue,red,Y,color_change,no_figure_change,not_first,no_update,correct,9,513,1515,2275,0,18.1693458911469,37.1138781993656,1500,-7.86123944953674,1100,26.8201559414964,1.05945867484367,0,NaN
206993057,114,b_3,blue,red,X,no_color_change,figure_change,not_first,no_update,correct,102,607,1609,2500,0,-3.88007102374335,8.08391371921678,1525,-25.7008525332137,1825,-9.47644966412402,4.82308797804613,0,NaN
206993057,115,b_3,red,red,X,color_change,no_figure_change,not_first,update,correct,10,513,1516,2000,0,-3.72504125995657,10.2447193313329,1050,-25.6097117726166,1975,-13.1796282161564,-4.84417467298287,1,200
206993057,116,b_3,red,red,Y,no_color_change,figure_change,not_first,update,correct,5,509,1512,2500,0,-0.231390915272649,24.3105642766228,1300,-27.9380568519304,175,7.9633095239479,8.88405856062676,0,NaN
206993057,117,b_3,blue,red,X,color_change,figure_change,not_first,no_update,correct,11,515,1518,2800,0,22.4368973626347,41.4396799374314,875,-7.82742825247375,2175,29.9390189895101,2.5306534443659,2,200
206993057,118,b_3,red,red,X,color_change,no_figure_change,not_first,update,correct,11,514,1517,1525,0,-4.48797661366619,15.3606534775374,625,-41.4672667433826,1475,-12.1301221857753,-35.2513674405145,1,125
207280074,2,b_0,red,red,Y,no_color_change,figure_change,not_first,update,correct,21,1031,3037,2200,0,-1.53197510908793,6.92242680061882,1675,-9.77639093148959,475,0,0.232060660465649,0,NaN
207280074,3,b_0,red,red,Y,no_color_change,no_figure_change,not_first,update,correct,9,1015,3019,2100,0,-7.61884746066288,-0.412946009830037,75,-17.8153022173864,1750,-0.668311259520507,-6.16886466814242,0,NaN
207280074,4,b_0,red,red,Y,no_color_change,no_figure_change,not_first,update,correct,14,1020,0,1125,0,-2.32026620027653,1.48851214562571,900,-8.68964643573209,1125,-3.62456361744994,-8.68964643573209,0,NaN
207280074,5,b_0,blue,red,Y,color_change,no_figure_change,not_first,no_update,correct,228,1235,3239,1875,0,-2.62127068916387,2.44343803357478,600,-10.5771242052624,1400,0,0.0396456698658909,0,NaN
207280074,6,b_0,blue,red,X,no_color_change,figure_change,not_first,no_update,correct,15,1023,3027,1575,0,-4.27495297717313,8.89402079619016,1500,-24.3968745886829,1375,-0.179723116317476,-15.2446364256399,0,NaN
207280074,7,b_0,red,red,X,color_change,no_figure_change,not_first,update,correct,44,1051,3057,1775,0,10.967416692859,17.6047725577927,1525,-0.921429055657242,175,-0.921429055657242,11.9886109416311,1,150
207280074,8,b_0,red,red,X,no_color_change,no_figure_change,not_first,update,correct,17,1026,3032,3050,0,3.96913658701915,11.394291733137,1150,-6.66876303840962,225,-6.1582198224731,6.30701108520473,0,NaN
207280074,9,b_0,red,red,X,no_color_change,no_figure_change,not_first,update,correct,23,1029,3034,2875,0,-3.75774660900237,4.72255683058954,1350,-14.3505897325716,2325,-0.744591672126063,-10.8981358204715,0,NaN
207280074,10,b_0,blue,red,X,color_change,no_figure_change,not_first,no_update,correct,11,1018,3024,2850,0,2.51554358666791,7.83529595030741,600,-5.41249032484191,2475,1.32750470979394,-5.41249032484191,1,275
207280074,11,b_0,red,red,X,color_change,no_figure_change,not_first,update,correct,23,1029,3034,2150,0,2.64341560973377,8.75362781373732,1750,-5.46914737650474,2150,0.699382648328964,-5.46914737650474,0,NaN
207280074,12,b_0,blue,red,X,color_change,no_figure_change,not_first,no_update,correct,56,1062,3067,2400,0,1.78374023829066,10.7143685821167,1700,-12.7338023775333,600,4.52664605897169,3.00710785008805,0,NaN
207280074,13,b_0,red,red,X,color_change,no_figure_change,not_first,update,correct,18,1024,3028,1600,0,6.17968757809454,13.751636861624,1575,-0.759453813012925,100,0.687231979527979,4.74514939173723,0,NaN
207280074,15,b_1,red,red,Y,no_color_change,figure_change,not_first,update,correct,9,1017,3022,2800,0,2.1831917930295,12.2974736724855,2400,-8.09863162304374,825,2.01830152722589,10.5806460986365,0,NaN
207280074,16,b_1,red,red,X,no_color_change,figure_change,not_first,update,correct,22,1028,3034,2975,0,1.24513260317262,7.55732815236428,2175,-8.38008063339171,1025,-0.323126459427911,2.46757333625219,1,250
207280074,17,b_1,blue,red,X,color_change,no_figure_change,not_first,no_update,correct,9,1016,3021,2725,0,-2.25230293933787,3.31776642552353,875,-9.0059986846738,2100,-1.61182819271079,-5.73805522155718,0,NaN
207280074,18,b_1,red,red,Y,color_change,figure_change,not_first,update,correct,62,1069,3074,2850,0,4.17005328477177,11.9523551257538,1850,-3.82317252537138,375,0.433657523165166,2.36477790851596,0,NaN
207280074,20,b_2,blue,red,X,color_change,figure_change,not_first,no_update,correct,17,1025,3030,2600,0,2.20363516187743,9.50796060570673,500,-6.0011094242672,1950,0.2907372805481,1.50550819416871,0,NaN
207280074,21,b_2,red,red,X,color_change,no_figure_change,not_first,update,correct,130,1136,3141,2500,0,-3.27368002776045,4.93851149353979,1650,-12.5210404702765,1000,-1.88691171547431,-6.38366112376596,0,NaN
207280074,22,b_2,blue,red,Y,color_change,figure_change,not_first,no_update,correct,122,1133,3138,3050,0,-0.0870866200424164,7.81806691745786,2275,-7.33564220457396,825,-1.52042156804204,4.0686391592524,0,NaN
207280074,23,b_2,blue,red,X,no_color_change,figure_change,not_first,no_update,correct,6,1013,3018,2325,0,-2.01393167144997,5.62626156381322,2225,-11.4501159511753,1750,-0.288500548451566,-10.0549453301478,0,NaN
207280074,24,b_2,blue,red,X,no_color_change,no_figure_change,not_first,no_update,correct,38,1045,3050,1900,0,8.2293841848613,25.6614256943948,1600,-3.08631247508153,275,4.22361708870464,17.0447459082591,0,NaN
207280074,25,b_2,red,red,X,color_change,no_figure_change,not_first,update,correct,3,1010,3015,2575,0,-5.35832391881392,1.15820877174112,125,-16.6667032540047,2375,0.59556868797074,-14.8018466361236,1,150
207280074,27,b_3,blue,red,Y,color_change,no_figure_change,not_first,no_update,correct,12,1021,3026,2600,0,-1.01872326665404,7.5105539915568,325,-11.9978304017357,2250,-10.1474318820545,-9.99431200455039,1,125
207280074,28,b_3,red,red,X,color_change,figure_change,not_first,update,correct,68,1076,3081,2200,0,9.51356266063514,19.8882815067061,2050,-11.4129918234229,75,-0.646848446830518,14.1953634381271,1,150
207280074,29,b_3,red,red,X,no_color_change,no_figure_change,not_first,update,correct,5,1012,3018,2975,0,-3.03021381516553,3.65609996123221,800,-10.136532172288,1325,-0.000745534249844582,-7.08655155617849,0,NaN
207280074,30,b_3,red,red,Y,no_color_change,figure_change,not_first,update,correct,67,1073,3079,2850,0,0.367013398749488,9.9871562718581,1875,-9.92817748228808,925,-2.48076487203797,-2.75908626744688,0,NaN
207280074,32,b_0,blue,blue,Y,no_color_change,figure_change,not_first,update,correct,22,1029,3035,2550,0,-1.29563569858913,3.86982647785609,1325,-10.7860926971159,2475,-1.12360831228514,-10.7860926971159,0,NaN
207280074,33,b_0,blue,blue,X,no_color_change,figure_change,not_first,update,correct,9,1015,3021,2975,0,5.5559756266084,14.7317180007978,1925,-2.55362641545838,175,0.328785267499796,3.77777140428594,0,NaN
207280074,34,b_0,red,blue,Y,color_change,figure_change,not_first,no_update,correct,21,1027,3032,3150,0,1.88413721301137,6.88905464728109,1900,-3.34658041795571,2300,0.496704532948556,-2.91664119150393,0,NaN
207280074,35,b_0,blue,blue,X,color_change,figure_change,not_first,update,correct,6,1013,3019,2750,0,3.47281380553026,10.5459338709095,1725,-2.29630661445677,2450,0.146259924780608,-2.1054206456073,0,NaN
207280074,36,b_0,red,blue,X,color_change,no_figure_change,not_first,no_update,correct,14,1020,3026,2800,0,-2.39713818623785,3.40774052533068,1375,-15.3293052118532,2450,1.66266785584182,-14.6678055949854,1,150
207280074,37,b_0,blue,blue,X,color_change,no_figure_change,not_first,update,correct,6,1012,3017,2775,0,5.70248243987631,19.3730098458505,1725,-8.77040116178371,2450,1.02002478116631,-6.9259362884208,0,NaN
207280074,38,b_0,blue,blue,X,no_color_change,no_figure_change,not_first,update,correct,15,1022,3028,2775,0,2.99694983645693,11.9002081125595,1825,-7.59700215773144,325,0.39707365652491,-1.36945724755181,1,150
207280074,39,b_0,blue,blue,Y,no_color_change,figure_change,not_first,update,correct,4,1011,3015,3075,0,-4.79745688656803,-0.0788964333448092,525,-9.41080232979157,2075,-6.5808118510042,-6.30255105917902,0,NaN
207280074,40,b_0,red,blue,X,color_change,figure_change,not_first,no_update,correct,16,1022,3027,2700,0,0.849968031191304,7.58515166316126,1575,-6.32444852025,2425,-0.951944258928833,-5.79988237756801,1,125
207280074,42,b_1,red,blue,Y,color_change,figure_change,not_first,no_update,correct,49,1059,3065,1475,0,4.41109758240106,14.9389382899774,225,-4.41319119571918,850,5.97871864954533,5.35471782442026,0,NaN
207280074,43,b_1,red,blue,X,no_color_change,figure_change,not_first,no_update,correct,10,1017,3023,3075,0,-6.07208193852844,0.0191031200228338,100,-13.8951031568481,1825,-0.526601670026977,-2.20330322865745,0,NaN
207280074,44,b_1,red,blue,Y,no_color_change,figure_change,not_first,no_update,correct,22,1028,3034,3025,0,4.42187513276339,13.0003406467241,2450,-4.97318984115769,1425,1.54805011291808,10.2956056572589,0,NaN
207280074,45,b_1,blue,blue,X,color_change,figure_change,not_first,update,correct,8,1016,3020,2450,0,9.06027179930659,20.6700194594143,1800,-1.36659345475034,2125,1.25051517886489,6.51186085214496,0,NaN
207280074,46,b_1,red,blue,X,color_change,no_figure_change,not_first,no_update,correct,20,1027,3033,2850,0,-2.80571468284304,3.34331062281771,1000,-10.4716006719692,375,-2.8743220994965,-2.31426784349155,0,NaN
207280074,47,b_1,red,blue,X,no_color_change,no_figure_change,not_first,no_update,correct,6,1012,3017,2900,0,-3.88133318441022,4.49926699761744,1050,-12.983379680838,2300,-0.885601241905178,-9.41986040563464,0,NaN
207280074,48,b_1,blue,blue,Y,color_change,figure_change,not_first,update,correct,15,1022,3027,3125,0,0.796894164241103,9.17500292500293,2025,-5.82197457197458,1075,-1.08590733590734,2.69075894075894,0,NaN
207280074,49,b_1,red,blue,X,color_change,figure_change,not_first,no_update,correct,5,1012,3016,3025,0,-4.43598926370443,2.78074816800219,1125,-19.3094652834678,2475,-1.49406770638039,-19.3094652834678,0,NaN
207280074,51,b_2,blue,blue,X,no_color_change,no_figure_change,not_first,update,correct,113,1120,3126,2675,0,-8.91324135059326,4.06519000629855,950,-26.8010516672074,2275,-0.802349550512474,-18.6954841295593,0,NaN
207280074,52,b_2,blue,blue,X,no_color_change,no_figure_change,not_first,update,correct,9,1017,3022,2225,0,5.29718671439678,23.9102234836283,1700,-8.91409766417384,1850,-3.48821349491713,12.4644141281353,0,NaN
207280074,53,b_2,red,blue,Y,color_change,figure_change,not_first,no_update,correct,18,1027,3032,3000,0,3.0812671047113,9.46781081094773,1300,-6.27244682413847,2250,-1.26664674207618,-2.64071179192423,0,NaN
207280074,54,b_2,blue,blue,Y,color_change,no_figure_change,not_first,update,correct,7,1013,3019,2850,0,-0.102975306207031,8.37430767491806,1825,-4.93175652763648,300,-0.565163332203014,-2.54794468934855,0,NaN
207280074,55,b_2,blue,blue,Y,no_color_change,no_figure_change,not_first,update,correct,15,1022,3026,3150,0,1.89277788721304,9.76412414821277,2275,-4.79613433011114,600,-1.32235247872181,4.81459021933746,0,NaN
207280074,56,b_2,red,blue,X,color_change,figure_change,not_first,no_update,correct,5,1012,3018,2850,0,-4.82128970482692,1.75873008035748,1650,-16.5923987508178,2325,-0.229592781405458,-11.4937108859072,0,NaN
207280074,58,b_3,blue,blue,Y,no_color_change,figure_change,not_first,update,correct,7,1014,3019,2500,0,-5.74649963119471,3.37770325366655,100,-14.6232385065062,2375,-1.55091821616841,-7.08525226539261,0,NaN
207280074,59,b_3,blue,blue,Y,no_color_change,no_figure_change,not_first,update,correct,17,1025,3031,2950,0,-0.0495523013471104,8.78870272327065,975,-10.9994229397816,2025,0.76076192108134,-2.03987007325389,0,NaN
207280074,60,b_3,blue,blue,X,no_color_change,figure_change,not_first,update,correct,5,1011,3017,3150,0,-0.535531306646337,4.49187808584242,1800,-7.57552664274201,2275,0.941744837492436,-6.33587821516491,2,175
207280074,61,b_3,blue,blue,Y,no_color_change,figure_change,not_first,update,correct,15,1023,3028,3000,0,-2.52524357358636,3.31296845946851,350,-10.3331908947071,825,-3.79687481954566,-2.59230600436555,0,NaN
207280074,62,b_3,red,blue,X,color_change,figure_change,not_first,no_update,correct,3,1009,3014,2650,0,2.32476958722359,8.4110587953634,550,-8.37614468407718,1675,-0.318217185723128,2.08462183029746,1,150
207280074,63,b_3,red,blue,Y,no_color_change,figure_change,not_first,no_update,correct,14,1021,3026,2500,0,0.960198532464328,8.496944006557,1575,-7.7892005641834,1750,-0.290388517208342,-3.98825372162426,1,125
207280074,64,b_3,blue,blue,X,color_change,figure_change,not_first,update,correct,23,1030,3035,2650,0,1.47934410068621,8.92788894389481,1500,-7.71641909725874,675,0.569439563737475,6.36823245446408,1,125
207280074,65,b_3,red,blue,X,color_change,no_figure_change,not_first,no_update,correct,116,1125,3129,3175,0,2.23769079068632,8.66152771492099,2150,-5.11525747230476,675,1.89242635918222,3.01327207256843,1,125
207280074,66,b_3,blue,blue,X,color_change,no_figure_change,not_first,update,correct,16,1023,3027,2650,0,2.50708504773732,12.0676656545069,2400,-9.54983153778961,150,0.0660330269123364,0.0345763487375734,0,NaN
207280074,67,b_3,blue,blue,X,no_color_change,no_figure_change,not_first,update,correct,11,1018,3024,2525,0,-3.84545955974527,1.78383392669107,1475,-15.5623527052098,325,-2.50288321716893,0.518226946798379,1,175
207280074,68,b_3,blue,blue,X,no_color_change,no_figure_change,not_first,update,correct,39,1045,3051,2175,0,29.135081157119,53.7284681597437,2150,3.94627896680961,75,16.9682898556602,22.7750009293712,1,125
207280074,70,b_0,red,blue,X,color_change,figure_change,not_first,no_update,correct,7,1014,3020,1750,0,1.14085211342784,5.85808918608487,600,-7.81046451988855,1525,0.735150702282027,-7.08133372181781,1,200
207280074,71,b_0,red,blue,Y,no_color_change,figure_change,not_first,no_update,correct,65,1072,3077,1825,0,-0.360011292789931,7.6205578308933,1075,-10.1180706707,1850,-0.570153067665913,-10.1180706707,0,NaN
207280074,72,b_0,red,blue,Y,no_color_change,no_figure_change,not_first,no_update,correct,5,1011,3016,2350,0,3.92691079965002,13.0767780680257,675,-10.4772035655616,1550,3.15676083268252,-4.48442086553739,0,NaN
207280074,74,b_1,red,blue,Y,color_change,no_figure_change,not_first,no_update,correct,22,1028,3034,2300,0,-5.23667476801316,7.42617362173543,225,-13.9171885222918,1800,1.65411425563629,-5.04523295339948,0,NaN
207280074,75,b_1,blue,blue,X,color_change,figure_change,not_first,update,correct,30,1038,3044,2175,0,2.35206767372758,9.96050989825189,1150,-5.47999125300677,1475,4.31792747713561,3.98528447022807,0,NaN
207280074,76,b_1,blue,blue,Y,no_color_change,figure_change,not_first,update,correct,20,1027,3032,2525,0,4.61213046186071,8.76239150769509,1400,-0.542179400693655,50,-0.542179400693655,3.39501606225282,0,NaN
207280074,78,b_2,red,blue,X,color_change,figure_change,not_first,no_update,correct,12,1019,3025,3050,0,-0.171203322189564,7.0563237424453,700,-13.1968283190733,2400,-1.17617734957837,-9.26480278176061,0,NaN
207280074,79,b_2,red,blue,Y,no_color_change,figure_change,not_first,no_update,correct,22,1028,3034,2825,0,-1.92145527051442,6.28894194374891,525,-12.4764649934975,2450,-0.927085153050328,-8.02665036200237,0,NaN
207280074,80,b_2,red,blue,X,no_color_change,figure_change,not_first,no_update,correct,10,1018,3024,2575,0,-3.57669302682704,2.86244185818303,1250,-10.5653739720919,1800,-1.94468431691952,-3.3862088591447,1,150
207280074,81,b_2,red,blue,Y,no_color_change,figure_change,not_first,no_update,correct,21,1029,3033,1750,0,2.16308806746743,14.9340804851369,350,-11.8572881569677,1700,1.80911989428752,-7.22852920937704,1,125
207280074,82,b_2,red,blue,Y,no_color_change,no_figure_change,not_first,no_update,correct,22,1029,3034,2525,0,17.6830267292948,30.6286524025343,2000,-0.245347761421257,175,2.25175373877197,19.4533253697783,0,NaN
207280074,83,b_2,red,blue,Y,no_color_change,no_figure_change,not_first,no_update,correct,21,1028,3034,2750,0,-5.41993067096021,3.2666251841504,875,-15.7364663290679,1425,1.45180608809214,-3.36303514290563,0,NaN
207280074,84,b_2,blue,blue,Y,color_change,no_figure_change,not_first,update,correct,43,1050,0,375,0,-5.2468763488058,3.88647822840045,300,-13.480039243058,175,-7.08010171956833,0.703592887439783,0,NaN
207280074,85,b_2,blue,blue,X,no_color_change,figure_change,not_first,update,correct,885,1891,3896,2000,0,3.15318074828058,7.69160129723878,625,-2.63797661683608,1200,-0.88085606159467,0.924838449306677,0,NaN
207280074,86,b_2,blue,blue,Y,no_color_change,figure_change,not_first,update,correct,4,1011,3017,2925,0,3.08621610709104,9.54167882886671,1100,-7.07073205725057,1675,0.0999361793706015,3.78421700992931,0,NaN
207280074,87,b_2,blue,blue,X,no_color_change,figure_change,not_first,update,correct,14,1022,3026,2950,0,8.33111043982979,15.9675048159789,2050,-0.765740646862014,150,0.572594545270206,6.18320997668053,0,NaN
207280074,88,b_2,blue,blue,Y,no_color_change,figure_change,not_first,update,correct,176,1182,3187,2700,0,-7.28149797234086,-0.679612090657258,75,-14.2176753548808,2350,-0.886125304329298,-10.7731437613061,0,NaN
207280074,90,b_3,blue,blue,X,no_color_change,figure_change,not_first,update,correct,17,1025,3030,2750,0,1.01424112063267,6.29354183683017,1700,-6.22956457530984,1750,-1.21657946709217,-2.92525281133283,0,NaN
207280074,91,b_3,red,blue,X,color_change,no_figure_change,not_first,no_update,correct,5,1012,3018,1700,0,-3.63873276697071,6.53042048390887,1375,-15.3078673708831,925,5.02448844534366,-4.21241674054878,0,NaN
207280074,92,b_3,red,blue,Y,no_color_change,figure_change,not_first,no_update,correct,15,1021,0,2325,0,13.0424239234681,23.3232144662457,1900,1.48859373249577,50,1.48859373249577,15.874234595596,0,NaN
207280074,93,b_3,red,blue,Y,no_color_change,no_figure_change,not_first,no_update,correct,525,1533,3538,2300,0,8.47175010498117,18.7761495054391,850,-8.4105153493872,2125,14.937908707085,-3.15784705683218,0,NaN
207280074,94,b_3,blue,blue,X,color_change,figure_change,not_first,update,correct,21,1030,3033,3200,0,2.39022574966195,6.95448540609286,2050,-0.920053218074429,1000,0.86843074728219,2.52621600249665,0,NaN
207280074,95,b_3,blue,blue,Y,no_color_change,figure_change,not_first,update,correct,13,1021,3025,2525,0,-0.231278167208979,3.21939318785297,1450,-6.62614063700448,425,0.586324486797594,-4.46662443333199,1,175
207280074,96,b_3,red,blue,Y,color_change,no_figure_change,not_first,no_update,correct,22,1029,3033,1975,0,-1.58818800154659,5.19091818841179,225,-9.36229010016434,1725,2.19884136208812,-5.42870520836202,0,NaN
207280074,97,b_3,red,blue,Y,no_color_change,no_figure_change,not_first,no_update,correct,11,1019,3024,2550,0,-3.4037230916706,4.67364604187146,2400,-10.8261638072276,1775,-0.975868774351866,3.61238874976381,0,NaN
207280074,98,b_3,blue,blue,X,color_change,figure_change,not_first,update,correct,21,1028,3034,2375,0,-3.97731722932141,2.35797851691892,1500,-10.6615775489948,1000,0.00325430789007441,-5.13343824602103,0,NaN
207280074,100,b_0,blue,blue,X,no_color_change,no_figure_change,not_first,update,correct,16,1024,3028,2725,0,-9.36900153526422,0.682845765251329,125,-17.0364493788092,2400,-2.50266287749879,-10.6254336844059,0,NaN
207280074,101,b_0,red,blue,Y,color_change,figure_change,not_first,no_update,correct,15,1023,3027,2325,0,-3.58124811849805,5.72015108807625,300,-12.7273670506451,1800,-4.16455655550807,-5.77598154136518,0,NaN
207280074,102,b_0,red,blue,Y,no_color_change,no_figure_change,not_first,no_update,correct,5,1012,3018,2725,0,-0.136719667931677,7.22215707437783,1450,-9.25492936511165,1950,-6.51999626662965,-0.0500175899179851,1,125
207280074,103,b_0,blue,blue,Y,color_change,no_figure_change,not_first,update,correct,16,1022,3027,2975,0,-0.414732675023235,2.68317513760324,1625,-5.37834133128936,650,-1.07425755377754,1.15278721518303,2,162.5
207280074,105,b_1,blue,blue,Y,no_color_change,no_figure_change,not_first,update,correct,24,1031,3038,2425,0,4.71184861460699,11.5763193975484,1600,-3.07467206908548,775,0.588331593918184,8.34484416886652,0,NaN
207280074,106,b_1,red,blue,Y,color_change,no_figure_change,not_first,no_update,correct,37,1044,3050,2525,0,0.219125307315318,4.25824965451589,775,-5.58523052584864,2400,-0.963906396227159,-1.14440890601682,0,NaN
207280074,107,b_1,blue,blue,X,color_change,figure_change,not_first,update,correct,22,1029,3034,2700,0,2.18458490664765,10.447081271242,1675,-6.15991890763819,2150,2.17041321328483,-1.74515532764892,0,NaN
207280074,108,b_1,red,blue,Y,color_change,figure_change,not_first,no_update,correct,11,1017,3023,2200,0,0.681971007428208,7.28396762364386,1025,-10.9191826110087,1925,0.642207064277713,-7.01273964013605,1,150
207280074,109,b_1,red,blue,X,no_color_change,figure_change,not_first,no_update,correct,22,1028,3033,2675,0,5.5943957250081,16.1616343729315,900,-3.97363615524688,350,-1.39443000677383,10.1710456164571,0,NaN
207280074,110,b_1,blue,blue,Y,color_change,figure_change,not_first,update,correct,9,1015,3021,2725,0,-0.484589794590104,7.64432396873127,1725,-5.77715777367725,875,-0.569434368081815,4.14093792208944,0,NaN
207280074,111,b_1,red,blue,X,color_change,figure_change,not_first,no_update,correct,56,1062,3067,2350,0,-4.44148311983184,4.48200567543914,100,-11.2158434922515,1850,-1.42924707608802,-11.0887649289686,0,NaN
207280074,112,b_1,red,blue,Y,no_color_change,figure_change,not_first,no_update,correct,22,1030,3035,2975,0,2.55827477102482,16.9775266380407,2250,-9.44308603689568,1150,-0.374721692111962,15.4296875,0,NaN
207280074,113,b_1,red,blue,X,no_color_change,figure_change,not_first,no_update,correct,15,1022,3027,2650,0,-9.01096323247798,1.10567470956211,2400,-20.7292225201072,975,-0.76697944593387,0.186550491510275,0,NaN
207280074,114,b_1,red,blue,X,no_color_change,no_figure_change,not_first,no_update,correct,22,1029,3034,2875,0,-7.03210391737202,-0.116128073961875,150,-13.6306452084792,1100,-0.156412812797498,-7.07818615150212,0,NaN
207280074,115,b_1,blue,blue,Y,color_change,figure_change,not_first,update,correct,63,1071,3076,2750,0,-8.32435920911909,5.44296853301749,1850,-22.8679047796118,900,-5.9201722432247,-0.643387205248089,0,NaN
207280074,116,b_1,red,blue,X,color_change,figure_change,not_first,no_update,correct,3,1011,3016,2750,0,NaN,NaN,25,NaN,25,NaN,NaN,0,NaN
207280074,117,b_1,red,blue,Y,no_color_change,figure_change,not_first,no_update,correct,15,1022,3028,2475,0,-6.13861418636391,5.9311641184926,425,-19.8755063679222,1200,-9.8373591467889,-13.8646803976559,0,NaN
207280074,118,b_1,red,blue,Y,no_color_change,no_figure_change,not_first,no_update,correct,30,1037,3043,2100,0,4.15794567826425,24.6338595001932,2125,-12.8792899708667,1600,-1.14277011763312,24.6338595001932,0,NaN
207280074,120,b_2,blue,blue,X,no_color_change,figure_change,not_first,update,correct,22,1029,3034,2275,0,-5.75372229908151,2.92256119834698,1400,-20.6823202566466,2250,0.349385345198186,-8.63150779904628,0,NaN
207280074,121,b_2,blue,blue,Y,no_color_change,figure_change,not_first,update,correct,13,1021,3026,3025,0,13.1993186950894,27.89614260009,2100,-3.53548133153396,450,3.55235042735043,24.5985155195682,0,NaN
207280074,122,b_2,red,blue,X,color_change,figure_change,not_first,no_update,correct,21,1028,3034,3100,0,-3.09394184345214,4.98099544968068,950,-18.2570145877195,2300,-0.853858169614739,-13.4083032538079,1,175
207280074,123,b_2,blue,blue,X,color_change,no_figure_change,not_first,update,correct,12,1018,3024,2825,0,-1.99310947669395,9.16655669810076,1925,-12.71887974176,1225,-0.634434034086865,-5.30082324160263,0,NaN
207280074,124,b_2,red,blue,Y,color_change,figure_change,not_first,no_update,correct,88,1095,3099,3100,0,-1.41746009471296,4.72427111917199,325,-7.30229347242464,2225,-0.199679819471626,-4.39072911589101,1,225
207280074,125,b_2,red,blue,X,no_color_change,figure_change,not_first,no_update,correct,10,1016,3022,2975,0,-1.36291415732771,4.76345417154943,625,-12.7537233947904,2325,2.29923917934066,-6.52404350887539,1,250
207280074,126,b_2,blue,blue,Y,color_change,figure_change,not_first,update,correct,25,1034,3038,3150,0,2.08904439713361,9.56945451443681,50,-4.53096344948182,300,9.56945451443681,2.32705676632405,2,150
207280074,127,b_2,red,blue,X,color_change,figure_change,not_first,no_update,correct,7,1014,3021,2825,0,2.97445868698044,9.66104422756763,2100,-5.63325655577454,1475,3.4995791745489,3.04656519364566,1,150
207280074,129,b_3,blue,blue,Y,no_color_change,no_figure_change,not_first,update,correct,156,1163,3170,3025,0,-3.20242619309559,3.45397540710215,1500,-13.1895906372066,750,1.38554321051708,-7.82308135125052,1,150
207280074,130,b_3,red,blue,Y,color_change,no_figure_change,not_first,no_update,correct,10,1017,3021,3325,0,0.0623778429712699,4.42206492965009,1975,-6.73992366732374,825,1.01990718696571,-0.110280240100067,0,NaN
207280074,131,b_3,blue,blue,X,color_change,figure_change,not_first,update,correct,22,1030,3036,3100,0,5.79154162670544,15.0127875919108,475,-3.56118965855067,575,0.379244913322808,2.93470078066186,0,NaN
207280074,132,b_3,red,blue,Y,color_change,figure_change,not_first,no_update,correct,8,1017,3023,3250,0,0.694303821702062,5.95031704942173,1350,-3.89080200441731,1700,-0.00047498040704852,0.847840026598917,1,150
207280074,133,b_3,red,blue,X,no_color_change,figure_change,not_first,no_update,correct,19,1027,3031,3375,0,1.51057274127261,6.98932804983797,1175,-5.54767014324538,2475,1.00979029109283,-5.54767014324538,0,NaN
207280074,135,b_0,blue,red,X,color_change,no_figure_change,not_first,no_update,correct,23,528,1530,2325,0,2.97652820621049,13.9367119763108,2275,-9.24098522467477,1050,-0.0418672276029355,12.3442348827591,1,200
207280074,136,b_0,red,red,X,color_change,no_figure_change,not_first,update,correct,12,515,1518,2850,0,-2.09191222273495,1.55365614356501,800,-8.03635375762515,1925,-3.7110379186396,-7.34859470133975,1,175
207280074,137,b_0,red,red,Y,no_color_change,figure_change,not_first,update,correct,68,572,1575,3025,0,1.49728798744291,10.459199981059,2075,-8.01557894238395,850,0.969303801214593,2.12635990198052,0,NaN
207280074,138,b_0,blue,red,X,color_change,figure_change,not_first,no_update,correct,6,509,1511,3325,0,-7.11627717903193,-0.0731992755719091,100,-16.143443881297,1275,-0.0731992755719091,-2.86589625726987,0,NaN
207280074,139,b_0,red,red,Y,color_change,figure_change,not_first,update,correct,12,515,1518,1900,0,7.26436922651831,13.394674249829,575,1.00013567732057,1800,4.10437739338947,2.88521975572544,0,NaN
207280074,141,b_1,blue,red,Y,color_change,figure_change,not_first,no_update,correct,6,510,1512,2325,0,1.30645321368991,10.8922498495831,1100,-11.1840457370687,275,-3.04939613744878,4.00999852810924,0,NaN
207280074,142,b_1,blue,red,X,no_color_change,figure_change,not_first,no_update,correct,12,515,1518,3125,0,0.898506019583469,5.84042120306871,1600,-8.99125636419578,2325,-0.0570668625135227,-1.07180941101484,1,225
207280074,143,b_1,blue,red,Y,no_color_change,figure_change,not_first,no_update,correct,5,508,1511,2600,0,-2.12417379476927,3.65619074978454,1050,-13.8920999712726,2300,0.755415110600396,-12.6765871875898,1,150
207280074,144,b_1,blue,red,X,no_color_change,figure_change,not_first,no_update,correct,61,564,1567,2350,0,9.71982196689261,16.5613344809213,900,-4.09606951104553,100,-1.71427790756452,11.1895296255311,1,250
207280074,145,b_1,red,red,X,color_change,no_figure_change,not_first,update,correct,6,510,1513,3225,0,-0.57198307706238,8.01151438430992,1425,-11.6991891871806,375,0.67109438673765,-3.84820236381788,1,125
207280074,146,b_1,red,red,X,no_color_change,no_figure_change,not_first,update,correct,10,513,0,1925,0,-2.72102076955592,1.87647034963901,550,-12.7081305264866,150,-1.61814512857954,-5.34573497201265,0,NaN
207280074,147,b_1,blue,red,Y,color_change,figure_change,not_first,no_update,correct,691,1194,2197,2850,0,6.91893585151184,17.4301816777847,1725,-6.27828660903884,1300,-3.76788357178096,6.36864288625297,0,NaN
207280074,148,b_1,red,red,Y,color_change,no_figure_change,not_first,update,correct,8,511,1513,2450,0,-4.45408391386845,4.61217817542648,650,-16.0423177283556,1400,0.739519336088591,-15.6493741527819,0,NaN
207280074,149,b_1,blue,red,Y,color_change,no_figure_change,not_first,no_update,correct,2,505,0,975,0,-2.51378861237719,7.50028737734212,900,-12.8379296291265,750,-0.573709675733852,-11.012299750243,1,150
207280074,150,b_1,blue,red,Y,no_color_change,no_figure_change,not_first,no_update,correct,16,520,1523,1525,0,6.60449491070378,17.4522035164926,575,-7.60254706993544,150,-7.60254706993544,-6.32875262076267,1,125
207280074,152,b_2,red,red,X,no_color_change,no_figure_change,not_first,update,correct,5,508,1511,3075,0,2.0741145634755,9.31035622652641,1300,-8.19684636920519,1975,1.26709742384828,0.725472396194888,0,NaN
207280074,153,b_2,blue,red,Y,color_change,figure_change,not_first,no_update,correct,11,515,1518,1825,0,8.51299715000244,15.4603819804299,1775,-2.6784392371159,350,-0.58145012584626,15.4603819804299,1,175
207280074,154,b_2,blue,red,Y,no_color_change,no_figure_change,not_first,no_update,correct,3,506,1509,2775,0,1.49167299940684,10.1625034822175,525,-9.31446745287398,2075,-3.85435045036679,1.51847896740644,0,NaN
207280074,155,b_2,blue,red,X,no_color_change,figure_change,not_first,no_update,correct,11,515,1517,3100,0,-7.90976865331606,1.11091003687199,50,-13.9575180401294,2250,1.11091003687199,-6.90908679620874,0,NaN
207280074,156,b_2,red,red,X,color_change,no_figure_change,not_first,update,correct,4,508,1511,2325,0,-0.357521335007406,7.77011729305737,825,-7.58826193015001,1500,4.25570762916112,-2.52747306252222,0,NaN
207280074,157,b_2,red,red,X,no_color_change,no_figure_change,not_first,update,correct,59,563,1565,2250,0,-2.96718761387082,8.49397756886279,300,-17.164871120225,1825,-0.409118209529836,-0.691580658861255,1,125
207280074,158,b_2,red,red,Y,no_color_change,figure_change,not_first,update,correct,3,507,1509,2400,0,1.76460045368944,12.8007190549563,625,-9.64252696456086,925,0.0796096558808443,5.2336928608115,1,225
207280074,159,b_2,red,red,X,no_color_change,figure_change,not_first,update,correct,8,511,1514,2750,0,-0.869478166257294,9.27776822769579,1175,-12.7600009822941,850,3.64627587731147,-4.26168316102257,0,NaN
207280074,160,b_2,red,red,Y,no_color_change,figure_change,not_first,update,correct,70,573,1575,1925,0,14.6492241064494,25.199129723641,1050,-0.906074961038158,700,2.7780949588779,1.49304859043005,0,NaN
207280074,161,b_2,red,red,Y,no_color_change,no_figure_change,not_first,update,correct,43,546,1549,2675,0,4.17460681878039,17.1496592449034,1175,-13.469356635686,200,-13.469356635686,8.21575171484295,1,175
207280074,163,b_3,blue,red,Y,color_change,no_figure_change,not_first,no_update,correct,7,510,0,2375,0,0.320051140040278,5.23210834096753,900,-8.07055720246882,2025,0.592888773181969,-0.931577098872921,0,NaN
207280074,164,b_3,red,red,X,color_change,figure_change,not_first,update,correct,344,848,82,1250,0,3.52453845431359,12.2865836410104,250,-6.45297768244777,900,11.6175244317301,3.35538113007053,0,NaN
207280074,165,b_3,red,red,X,no_color_change,no_figure_change,not_first,update,correct,913,1416,2418,2950,0,8.45155647293919,25.2548871525256,125,-6.15916770751639,950,21.056147790978,7.04873113157309,0,NaN
207280074,166,b_3,red,red,Y,no_color_change,figure_change,not_first,update,correct,11,514,1516,2850,0,-2.47688165322828,3.94501396002998,1950,-11.2798898979514,975,0.280361034457954,-3.56833684171438,0,NaN
207280074,167,b_3,blue,red,X,color_change,figure_change,not_first,no_update,correct,11,514,1518,2525,0,-13.2676465771013,3.86565401761936,50,-28.5724322841945,2075,3.86565401761936,-12.4702245370213,0,NaN
207280074,168,b_3,red,red,X,color_change,no_figure_change,not_first,update,correct,5,508,1511,3175,0,7.38806333323192,14.4029328255832,1925,-2.49982561158663,2325,1.99345332978528,3.08370385488817,0,NaN
207280074,169,b_3,red,red,X,no_color_change,no_figure_change,not_first,update,correct,11,514,1516,3000,0,-10.0500119333609,0.733277566646237,75,-22.8721086564966,1100,0.593938518392505,-7.99591769209799,0,NaN
207280074,170,b_3,red,red,X,no_color_change,no_figure_change,not_first,update,correct,6,510,1513,2625,0,6.40199211240849,15.6691576178958,1775,-5.94984331113235,2425,8.79434890832415,-2.25702391367351,0,NaN
207280074,171,b_3,blue,red,Y,color_change,figure_change,not_first,no_update,correct,35,538,1540,2500,0,8.34612840972149,16.4419890112619,1050,-2.72510769349644,250,-0.606008758979058,6.86561562597448,1,125
207280074,172,b_3,red,red,X,color_change,figure_change,not_first,update,correct,4,507,1509,3000,0,2.29821884291525,9.68262134953119,2400,-9.67059070466303,2450,-2.07464631183943,-8.67486286344706,1,200
207280074,173,b_3,blue,red,Y,color_change,figure_change,not_first,no_update,correct,44,548,1550,2200,0,8.0145204299607,20.84198668419,2200,-6.4666888115423,1625,3.93552952730316,17.6080645860112,0,NaN
207280074,174,b_3,red,red,X,color_change,figure_change,not_first,update,correct,2,506,1509,1950,0,6.36892028192826,13.0854256932811,1650,-0.835129377005856,1575,0.450351249229826,10.2806282152481,0,NaN
207280074,175,b_3,red,red,Y,no_color_change,figure_change,not_first,update,correct,7,512,1514,2750,0,-11.048503645008,-1.60528444084999,50,-21.0068966130165,675,-1.60528444084999,-14.057848007892,1,175
207280074,176,b_3,blue,red,X,color_change,figure_change,not_first,no_update,correct,1,504,1508,2750,0,-5.95671125153476,2.65809658949959,175,-18.5545809063576,775,-0.610506365539763,-10.5366303819324,1,125
207280074,178,b_0,blue,red,Y,color_change,figure_change,not_first,no_update,correct,23,1031,3036,2250,0,-4.34450407687552,0.931924872104133,375,-14.052628983155,1450,-1.14758802509046,-2.3521182963956,0,NaN
207280074,179,b_0,red,red,Y,color_change,no_figure_change,not_first,update,correct,12,1019,3025,1625,0,-2.96103469785353,3.43025110513604,1100,-12.5687007246047,425,-1.47062844642939,-10.3771134302511,0,NaN
207280074,180,b_0,red,red,X,no_color_change,figure_change,not_first,update,correct,21,1029,3034,1975,0,7.7879778300832,14.1541866198479,1125,-1.68500344307364,1900,0.0199750837113726,0.974048160978143,0,NaN
207280074,181,b_0,red,red,X,no_color_change,no_figure_change,not_first,update,correct,21,1028,3034,2425,0,2.43993282664952,11.4872152040188,900,-9.96275919780246,2025,0.257021307560166,-1.87269518936155,0,NaN
207280074,183,b_1,blue,red,Y,color_change,figure_change,not_first,no_update,correct,9,1017,3023,2250,0,-4.86820408920484,1.91388611437405,1550,-13.5591150749363,900,-0.986126340416277,-5.32991762743571,0,NaN
207280074,184,b_1,blue,red,Y,no_color_change,no_figure_change,not_first,no_update,correct,23,1029,3036,1175,0,-3.31199834974942,3.03521115757788,150,-10.7052647476994,750,1.36162655653523,-6.69459880320603,0,NaN
207280074,185,b_1,blue,red,X,no_color_change,figure_change,not_first,no_update,correct,309,1317,3323,1500,0,-0.442850238738586,6.07166120488986,950,-11.6704453073322,1400,5.06733386183811,-10.1950081547946,1,225
207280074,186,b_1,blue,red,Y,no_color_change,figure_change,not_first,no_update,correct,22,1029,3034,1950,0,8.08209948270371,17.9005035246727,1275,-4.0351795904666,100,-2.56542463914064,7.88452500839207,0,NaN
207280074,187,b_1,blue,red,X,no_color_change,figure_change,not_first,no_update,correct,7,1014,3019,1750,0,-3.15333569958714,7.55965534917603,1700,-18.5108788694119,400,-0.989902309690294,6.84862294189352,0,NaN
207280074,188,b_1,red,red,X,color_change,no_figure_change,not_first,update,correct,18,1025,3030,2100,0,-1.78533936731417,5.01157836235643,600,-6.43710633567989,850,0.975129677658387,-4.11541311596888,0,NaN
207280074,190,b_2,blue,red,X,color_change,no_figure_change,not_first,no_update,correct,17,1023,3029,2175,0,3.23108405981891,8.7845713409335,1225,-3.42748325750217,1950,-2.36005316701601,-0.531670160012268,0,NaN
207280074,191,b_2,blue,red,X,no_color_change,no_figure_change,not_first,no_update,correct,5,1012,3018,1050,0,-2.85789790926197,8.46645453419694,400,-13.3605767418822,350,-0.688892119332593,7.4095610365417,0,NaN
207280074,192,b_2,blue,red,X,no_color_change,no_figure_change,not_first,no_update,correct,14,1021,3027,2200,0,1.41574849295744,8.64217763722264,2200,-8.29238313509084,600,1.89237289220644,6.61203794988668,0,NaN
207280074,193,b_2,red,red,X,color_change,no_figure_change,not_first,update,correct,4,1010,3016,2225,0,-3.55369211373341,1.62521188309536,1575,-12.2440416447135,1925,0.421501336264129,-1.15674461739457,0,NaN
207280074,194,b_2,blue,red,X,color_change,no_figure_change,not_first,no_update,correct,22,1029,3036,2600,0,1.87586237490968,8.38493980885323,1200,-4.86514584096305,2000,-2.52625609885762,-0.0160667241603392,0,NaN
207280074,195,b_2,blue,red,Y,no_color_change,figure_change,not_first,no_update,correct,25,1032,3038,1725,0,0.730774481317,6.36282154065182,900,-8.77811596156529,1625,-2.16035587340102,-8.39334321870558,0,NaN
207280074,197,b_3,blue,red,Y,color_change,figure_change,not_first,no_update,correct,26,1034,3039,2700,0,1.94263630146232,10.533130066737,2075,-8.32767102437964,2200,0.322442757145012,0.446725291125034,0,NaN
207280074,198,b_3,blue,red,X,no_color_change,figure_change,not_first,no_update,correct,15,1021,3026,2525,0,0.576589318374021,7.86004865791888,1325,-8.20080365333227,550,2.66073066645396,0.204652414948356,0,NaN
207280074,199,b_3,red,red,Y,color_change,figure_change,not_first,update,correct,22,1030,3034,1875,0,1.7036161804222,13.6689648675249,1675,-9.22304944230822,725,-2.45686844721452,2.59570258752129,0,NaN
207280074,200,b_3,blue,red,X,color_change,figure_change,not_first,no_update,correct,113,1120,3126,2225,0,-3.17874134843033,4.52646454570285,1675,-15.1210706948354,2225,-2.19839205766742,-15.1210706948354,0,NaN
207280074,201,b_3,blue,red,X,no_color_change,no_figure_change,not_first,no_update,correct,22,1030,3036,2525,0,9.7804546380794,15.6589835708231,1125,-1.06675278192655,2125,1.40260229550989,15.1856187515978,0,NaN
207280074,202,b_3,blue,red,X,no_color_change,no_figure_change,not_first,no_update,correct,12,1018,3025,1875,0,-6.51799078009938,-0.579057654313601,125,-12.1297970424475,600,-3.35269113332934,-9.38490091600312,1,125
207280074,203,b_3,red,red,Y,color_change,figure_change,not_first,update,correct,39,1046,3051,2300,0,2.91448659335769,12.1795916677663,1075,-6.03520319586855,1700,-2.42562076486614,10.3159387217043,0,NaN
207280074,204,b_3,red,red,X,no_color_change,figure_change,not_first,update,correct,22,1029,3033,2475,0,2.87430838480692,11.5344313638022,1825,-6.85839217298975,2450,0.794132065695962,-6.29032520381871,1,225
207280074,205,b_3,blue,red,X,color_change,no_figure_change,not_first,no_update,correct,132,1139,3145,1975,0,3.65067618913017,10.3850312395249,1375,-3.35355480337624,625,2.3033321319747,1.59663081913335,0,NaN
207280074,206,b_3,red,red,X,color_change,no_figure_change,not_first,update,correct,90,1098,3103,2150,0,2.06615553585891,8.00264919483762,2100,-3.86746920691633,1600,0.673463898376482,0.833329104095085,0,NaN
207280074,207,b_3,red,red,Y,no_color_change,figure_change,not_first,update,correct,20,1027,3034,2225,0,2.95085883063028,9.0140710034389,625,-5.33673775757102,775,-1.11568903006709,-3.96420308467076,1,175
207280074,208,b_3,red,red,X,no_color_change,figure_change,not_first,update,correct,6,1013,3018,2850,0,5.34200465402711,11.2044379213916,1850,-0.675994856780534,200,-0.675994856780534,1.40301772591894,1,175
207280074,209,b_3,red,red,Y,no_color_change,figure_change,not_first,update,correct,15,1023,3030,2900,0,-2.74322145794492,1.73357771849,350,-15.6748545129871,2350,1.00254528556029,-15.1405568490355,1,125
207280074,210,b_3,red,red,Y,no_color_change,no_figure_change,not_first,update,correct,5,1012,3017,2275,0,1.48206636209834,10.4090453095182,1525,-8.71543832389227,2125,-0.218740807229011,-6.49584769605588,1,150
207601006,2,b_0,blue,blue,Y,no_color_change,no_figure_change,not_first,update,correct,17,1024,3030,2325,0,2.33836039052388,12.5987747254363,350,-7.50032757776964,1950,0,-4.08014825233917,1,125
207601006,3,b_0,red,blue,X,color_change,figure_change,not_first,no_update,correct,61,1070,3074,1025,0,5.63456580541401,17.3099750777765,400,-6.55600749354441,800,0,13.6909081703262,0,NaN
207601006,4,b_0,red,blue,X,no_color_change,no_figure_change,not_first,no_update,correct,132,1138,3144,850,0,7.06957883025116,25.0757082529462,675,-16.3714990532735,750,15.4247725765893,16.3712004013881,0,NaN
207601006,5,b_0,blue,blue,X,color_change,no_figure_change,not_first,update,correct,28,1035,3041,1050,0,7.10048773931067,20.9230820928123,950,-3.123424846265,450,4.35095265297893,10.3091501730569,1,275
207601006,6,b_0,red,blue,Y,color_change,figure_change,not_first,no_update,correct,18,1025,3031,3275,0,-16.1562436583862,0.456802538138334,2150,-31.4959893360773,525,-15.1095624517668,-17.5993701425754,0,NaN
207601006,7,b_0,red,blue,X,no_color_change,figure_change,not_first,no_update,correct,5,1013,3017,3000,0,-3.82597605243716,5.75129623328162,1750,-11.4261738192598,2425,-6.53249666930047,-7.87083229999942,0,NaN
207601006,8,b_0,blue,blue,X,color_change,no_figure_change,not_first,update,correct,22,1028,3035,2800,0,2.92329313315777,14.6162373929319,1400,-6.717460470063,2425,4.57174274220442,-4.06941285688104,1,150
207601006,9,b_0,red,blue,Y,color_change,figure_change,not_first,no_update,correct,5,1011,3017,2575,0,-6.22748845999884,15.1582962211738,2500,-21.8136822611226,500,-6.04083072445874,-0.846047003836148,1,225
207601006,10,b_0,blue,blue,Y,color_change,no_figure_change,not_first,update,correct,15,1022,3026,2175,0,4.52781112500374,26.30482403924,1575,-14.1530549073765,500,-4.44485451688176,0.611041001952472,0,NaN
207601006,11,b_0,blue,blue,Y,no_color_change,no_figure_change,not_first,update,correct,3,1011,3015,1850,0,-4.14459270002634,14.826359450069,1025,-19.5027679417485,1600,-8.14838827656143,0.665525133132732,0,NaN
207601006,12,b_0,red,blue,X,color_change,figure_change,not_first,no_update,correct,14,1021,3026,1625,0,-9.61780395140496,15.8621313905755,500,-29.7441568036481,1475,-3.51472480587915,-16.4585606434977,0,NaN
207601006,13,b_0,blue,blue,X,color_change,no_figure_change,not_first,update,correct,22,1030,3036,2400,0,-6.15349207025413,16.6633227151421,225,-21.5978957841475,400,9.17213837912715,-12.5499874945374,0,NaN
207601006,15,b_1,red,blue,Y,color_change,no_figure_change,not_first,no_update,correct,17,1023,3028,550,0,-5.63484507876063,3.44654757238058,200,-17.1481771854175,400,-0.423083384667081,-3.08226465811727,0,NaN
207601006,16,b_1,red,blue,X,no_color_change,figure_change,not_first,no_update,correct,23,1032,3037,1600,0,12.8656861238548,34.6081205444831,150,-3.95450736920182,800,30.7312198673132,2.41061494718625,0,NaN
207601006,17,b_1,blue,blue,X,color_change,no_figure_change,not_first,update,correct,4,1010,3017,2550,0,-3.08372698910126,11.7264109521183,625,-15.9471645857492,1125,5.87910788872252,4.45436429753555,0,NaN
207601006,18,b_1,red,blue,X,color_change,no_figure_change,not_first,no_update,correct,15,1023,3029,2325,0,-10.1571424347699,6.94532739987285,1375,-24.4677081487812,1050,-19.4029889633466,-5.20098381499275,0,NaN
207601006,19,b_1,blue,blue,Y,color_change,figure_change,not_first,update,correct,20,1028,3032,1950,0,-8.07774795040755,5.1884782661125,1675,-19.5992207367628,1825,-7.33225608497935,1.98353042690655,0,NaN
207601006,20,b_1,blue,blue,Y,no_color_change,no_figure_change,not_first,update,correct,13,1020,3026,2400,0,-11.6269932069593,10.4711063317715,350,-23.063983408864,2000,-12.9293084466293,-7.08477353611389,1,225
207601006,21,b_1,red,blue,Y,color_change,no_figure_change,not_first,no_update,correct,57,1065,3071,1925,0,-14.4685907605273,8.24218498785515,100,-30.5907204305863,1550,0.199858516001058,-6.00589681562062,0,NaN
207601006,22,b_1,red,blue,Y,no_color_change,no_figure_change,not_first,no_update,correct,22,1028,3033,1250,0,-5.93323971503907,4.23301862199503,1075,-15.1611148261909,300,-11.0255698239808,-5.76086094141382,1,150
207601006,23,b_1,red,blue,Y,no_color_change,no_figure_change,not_first,no_update,correct,23,1029,3035,2025,0,-2.98944037957606,21.0345811442125,450,-18.0197186589467,1350,5.44381392641095,-4.56307405881013,0,NaN
207601006,24,b_1,red,blue,Y,no_color_change,no_figure_change,not_first,no_update,correct,10,1017,3022,2850,0,1.11446754956551,10.7269253284283,1750,-10.9132402452106,275,-9.58288636572995,3.35782864376409,1,200
207601006,25,b_1,red,blue,X,no_color_change,figure_change,not_first,no_update,correct,21,1029,3033,3325,0,-5.99638120989101,7.21383899452425,2425,-16.4968400743254,1475,-3.89769843401429,-5.25338785324206,1,250
207601006,26,b_1,blue,blue,X,color_change,no_figure_change,not_first,update,correct,8,1015,3020,2975,0,1.4839405358161,23.152295798798,75,-10.0710780969107,2450,-6.06359057117599,-7.51363121265881,0,NaN
207601006,27,b_1,red,blue,Y,color_change,figure_change,not_first,no_update,correct,19,1026,3032,2900,0,14.3623710007715,40.79566332196,950,-5.79031313722719,2125,3.18453762963262,24.3682407650428,0,NaN
207601006,28,b_1,red,blue,Y,no_color_change,no_figure_change,not_first,no_update,correct,6,1015,3020,2925,0,10.7182573551765,29.1803333056961,300,-1.02114252549542,425,0.221872149904655,10.1298399801012,1,200
207601006,29,b_1,red,blue,Y,no_color_change,no_figure_change,not_first,no_update,correct,90,1096,3102,3250,0,2.95134851334261,16.439242922438,1225,-5.1783645454903,2525,2.64226965972648,-4.39127975389232,0,NaN
207601006,30,b_1,red,blue,Y,no_color_change,no_figure_change,not_first,no_update,correct,3,1011,3015,2850,0,6.64544372761711,30.7765866906372,75,-7.25776889509402,2100,8.45852498573564,4.68253436992978,0,NaN
207601006,31,b_1,red,blue,X,no_color_change,figure_change,not_first,no_update,correct,16,1023,3028,3275,0,-4.55147981951032,16.4465305031541,250,-21.3984350923318,500,-13.3595333095152,-17.8251656134858,0,NaN
207601006,32,b_1,blue,blue,Y,color_change,figure_change,not_first,update,correct,3,1009,3014,2800,0,-21.0947629607726,-1.67221407992841,50,-33.6335328575799,650,-1.67221407992841,-18.576985768488,0,NaN
207601006,33,b_1,red,blue,X,color_change,figure_change,not_first,no_update,correct,14,1022,3027,2675,0,8.51932420205855,30.1560337626392,1025,-10.1331554602466,200,5.30533494582767,1.07191392272495,0,NaN
207601006,35,b_2,blue,blue,X,no_color_change,figure_change,not_first,update,correct,14,1021,3027,3275,0,-2.43043966301191,7.49265208627472,1475,-11.0084031126147,850,7.24135787669712,-0.0369985585361832,0,NaN
207601006,36,b_2,red,blue,X,color_change,no_figure_change,not_first,no_update,correct,48,1055,3061,2125,0,7.29378827365209,30.4389707805212,300,-9.72150960134793,1625,8.18390363232514,-0.834842250565217,0,NaN
207601006,37,b_2,blue,blue,X,color_change,no_figure_change,not_first,update,correct,20,1026,3032,3375,0,11.5842862870463,27.8441267734952,575,-2.14494909892703,1175,9.55023423206065,21.6867389133509,0,NaN
207601006,38,b_2,red,blue,Y,color_change,figure_change,not_first,no_update,correct,22,1029,3034,3450,0,-4.1007612096904,5.32323152397531,1975,-11.2823005448421,2275,1.80125698008274,-11.0632898514684,1,225
207601006,39,b_2,red,blue,X,no_color_change,figure_change,not_first,no_update,correct,10,1017,3021,2825,0,1.91239783226093,16.3648505198965,175,-7.58189040120705,1650,1.13240116295552,-1.30606750727898,1,175
207601006,40,b_2,red,blue,Y,no_color_change,figure_change,not_first,no_update,correct,23,1029,3034,2950,0,-6.67292216141289,11.2639684477416,1400,-21.5753481409467,2475,-10.7416879795396,-19.9969066413306,0,NaN
207601006,42,b_3,blue,blue,X,no_color_change,figure_change,not_first,update,correct,15,1024,3029,2325,0,1.39457019510566,16.1281185898965,1925,-12.4463340170777,2225,-2.34669417545199,-2.12696178982016,1,125
207601006,43,b_3,blue,blue,Y,no_color_change,figure_change,not_first,update,correct,19,1026,3032,2700,0,19.4516147288572,37.0749298114937,2000,-3.65660631410073,2175,24.9011631238183,16.3102331977311,0,NaN
207601006,44,b_3,red,blue,X,color_change,figure_change,not_first,no_update,correct,22,1029,3034,2875,0,16.1870866523924,42.2300055118715,2300,-5.69606564010968,875,-1.33331472786007,36.0738032610743,0,NaN
207601006,46,b_4,red,blue,X,color_change,no_figure_change,not_first,no_update,correct,8,1014,3020,2550,0,14.2272010897414,38.5494242456736,1775,-9.00141474027929,2000,2.05085455155501,2.16188917983114,0,NaN
207601006,47,b_4,blue,blue,Y,color_change,figure_change,not_first,update,correct,15,1023,3028,2475,0,-11.0109073532531,8.3074945379913,1175,-25.8656456204621,900,0.1285503056518,-21.143766689471,0,NaN
207601006,48,b_4,blue,blue,X,no_color_change,figure_change,not_first,update,correct,20,1028,3033,2800,0,15.7342591448524,39.8069348282719,1950,-5.1212598865515,375,0.125820893957453,5.36730963473495,0,NaN
207601006,49,b_4,red,blue,X,color_change,no_figure_change,not_first,no_update,correct,15,1022,3028,3275,0,6.28148213448281,25.1812998273029,750,-20.4551228658076,1350,-0.226403686778212,7.85369948126542,0,NaN
207601006,50,b_4,blue,blue,X,color_change,no_figure_change,not_first,update,correct,5,1011,3016,2425,0,14.4096105360623,33.7662021415005,600,-5.86338368201709,100,-3.33574524632819,8.48007736674762,0,NaN
207601006,51,b_4,red,blue,Y,color_change,figure_change,not_first,no_update,correct,15,1023,3028,3050,0,6.87464214606999,15.4569677500587,1325,0.107193537080462,50,0.107193537080462,3.60068195507399,1,200
207601006,52,b_4,blue,blue,Y,color_change,no_figure_change,not_first,update,correct,21,1028,3033,2900,0,4.95021315037991,11.1176085329341,2175,-1.01916702309667,200,0.215528763900764,7.43590943113773,0,NaN
207601006,53,b_4,blue,blue,Y,no_color_change,no_figure_change,not_first,update,correct,15,1021,3027,3075,0,1.09834927663068,12.8508035897878,1625,-7.30460795563839,425,-3.5924410159126,-0.833106705315032,0,NaN
207601006,54,b_4,red,blue,Y,color_change,no_figure_change,not_first,no_update,correct,22,1029,3034,3025,0,-1.945874715435,6.66000274396816,2325,-9.50000979988633,2100,-1.65193417089695,-2.20432109654195,2,187.5
207601006,55,b_4,blue,blue,X,color_change,figure_change,not_first,update,correct,12,1019,3024,3000,0,1.54080432094588,12.5117292280759,475,-9.31010586975334,625,-5.09918865240702,8.30485714380448,1,375
207601006,57,b_0,blue,red,Y,color_change,figure_change,not_first,no_update,correct,19,1028,3033,2675,0,-7.71817899892097,3.75909821002215,1175,-21.0265240858379,1075,0.439897550175814,-4.11535734440795,0,NaN
207601006,58,b_0,blue,red,Y,no_color_change,no_figure_change,not_first,no_update,correct,12,1019,3024,3250,0,4.07652168993861,13.8237178792653,1900,-2.43995307068187,500,-1.07510238701829,4.52081637201699,0,NaN
207601006,59,b_0,red,red,X,color_change,figure_change,not_first,update,correct,21,1029,3035,3050,0,-8.67698251725306,1.54351957217574,1725,-19.7481935747879,2275,-0.494139278326799,-12.371980649248,0,NaN
207601006,60,b_0,blue,red,X,color_change,no_figure_change,not_first,no_update,correct,10,1016,3022,2900,0,3.10788080709221,14.4157794920508,2450,-2.63407868052839,2425,4.67619632990734,3.55001320216626,1,150
207601006,61,b_0,blue,red,Y,no_color_change,figure_change,not_first,no_update,correct,22,1028,3033,3175,0,13.3114039464027,28.7176297636549,1925,0.0109549926495589,150,1.22837272418862,17.3201967658035,0,NaN
207601006,62,b_0,blue,red,X,no_color_change,figure_change,not_first,no_update,correct,9,1016,3021,3275,0,0.633128684249232,2.88757453356415,1000,-2.42264137334102,1700,-1.89309242161954,2.59695374110406,2,212.5
207601006,63,b_0,blue,red,X,no_color_change,no_figure_change,not_first,no_update,correct,20,1027,3033,3225,0,-3.38381066504325,5.39516628043823,625,-9.94042780359375,1025,0.681258417150971,-0.901165964984656,1,125
207601006,64,b_0,blue,red,X,no_color_change,no_figure_change,not_first,no_update,correct,7,1014,3020,2650,0,3.54420770014657,23.0391361621772,1925,-9.07704587191684,600,15.9334990233805,0.924706202994102,0,NaN
207601006,65,b_0,blue,red,X,no_color_change,no_figure_change,not_first,no_update,correct,17,1025,3030,3075,0,2.83570829503738,9.49050564983517,575,-3.32390359237888,1125,-0.349530488605822,4.00374199459846,1,125
207601006,66,b_0,blue,red,X,no_color_change,no_figure_change,not_first,no_update,correct,4,1012,3017,3000,0,1.80937700479207,6.94490528124138,2150,-5.22015250510883,1325,-0.853073514408607,-0.974941159324118,1,300
207601006,67,b_0,blue,red,X,no_color_change,no_figure_change,not_first,no_update,correct,15,1021,3026,2975,0,3.64103898719756,16.0106455745004,1000,-6.97652004128891,600,7.37106542799935,9.56609334775958,0,NaN
207601006,69,b_1,red,red,Y,no_color_change,figure_change,not_first,update,correct,7,1016,3022,2950,0,-0.539580370758716,14.1974582815593,2450,-8.74506227178401,1050,-3.06671454766754,-1.00889082390279,0,NaN
207601006,70,b_1,red,red,X,no_color_change,figure_change,not_first,update,correct,20,1026,3032,2725,0,-11.9627836769117,4.51079531850768,900,-21.9145669901272,2550,-3.33112685379491,-16.2579045955805,0,NaN
207601006,71,b_1,blue,red,X,color_change,no_figure_change,not_first,no_update,correct,7,1014,3018,3225,0,-3.39419546827547,8.8039037609618,600,-16.1847803550413,525,-2.97658853109606,-5.67575539001106,2,212.5
207601006,72,b_1,red,red,Y,color_change,figure_change,not_first,update,correct,15,1022,3027,2925,0,-2.8198962215257,4.76875046274587,2575,-8.18258101137738,1625,-1.22226609738641,4.76875046274587,0,NaN
207601006,73,b_1,blue,red,Y,color_change,no_figure_change,not_first,no_update,correct,5,1012,3018,3450,0,1.80054969270095,7.74205149162239,1275,-5.42541888026155,625,-0.498242746219859,0.632938291785862,1,200
207601006,75,b_2,red,red,Y,no_color_change,figure_change,not_first,update,correct,6,1014,3019,2875,0,-3.04058200580338,8.38207778806886,1750,-13.0506672965631,2450,0.786956170395285,-12.311574969075,0,NaN
207601006,76,b_2,red,red,Y,no_color_change,no_figure_change,not_first,update,correct,14,1020,3026,3100,0,-10.5654175857795,-1.54201802085797,2225,-15.3451662711652,1325,-13.7646196910126,-8.74502770633278,1,275
207601006,77,b_2,red,red,Y,no_color_change,no_figure_change,not_first,update,correct,4,1012,3018,2800,0,0.795180095254245,11.7919524903654,1800,-10.0402674744546,675,3.15855276502216,9.43143390115682,1,225
207601006,78,b_2,blue,red,Y,color_change,no_figure_change,not_first,no_update,correct,15,1023,3027,2700,0,2.82674095513335,26.4040780951247,1750,-11.6729187755129,2475,-1.41549067476464,11.894554380115,1,150
207601006,80,b_3,blue,red,X,color_change,figure_change,not_first,no_update,correct,15,1024,3029,3250,0,NaN,NaN,25,NaN,25,NaN,NaN,0,NaN
207601006,81,b_3,red,red,Y,color_change,figure_change,not_first,update,correct,3,1011,3017,2850,0,-5.34906053411111,4.99980182503894,2175,-16.4152893506874,1950,-1.18843999719506,-12.2545298222828,0,NaN
207601006,82,b_3,blue,red,Y,color_change,no_figure_change,not_first,no_update,correct,15,1022,3027,2125,0,9.56942204386422,26.5404788117918,1950,-0.479016938257757,275,1.56834453660838,17.7567920567298,1,225
207601006,83,b_3,red,red,Y,color_change,no_figure_change,not_first,update,correct,22,1028,3033,2900,0,-8.85144943988637,9.70869457379895,1575,-19.437732872952,550,3.00474036668868,-15.7585840767154,0,NaN
207601006,84,b_3,red,red,Y,no_color_change,no_figure_change,not_first,update,correct,11,1019,3025,2775,0,7.26250845736699,27.3369458727188,2000,-12.2733998635163,2025,18.1435511442336,9.84946251089505,0,NaN
207601006,85,b_3,blue,red,X,color_change,figure_change,not_first,no_update,correct,18,1025,3030,2800,0,-3.64583351962674,15.3672388527092,2500,-14.9136248381036,1150,11.4455450360885,-10.5386210377181,0,NaN
207601006,86,b_3,blue,red,Y,no_color_change,figure_change,not_first,no_update,correct,6,1013,3018,2650,0,5.29058624789236,17.6359341243615,125,-5.60696714967391,2300,12.048148173075,0.642401889852835,1,300
207601006,87,b_3,red,red,Y,color_change,no_figure_change,not_first,update,correct,16,1024,3030,3075,0,-1.47237502988177,16.1816428037113,1175,-15.4956101786113,2550,0.664378797622021,-7.77044318166905,0,NaN
207601006,88,b_3,red,red,Y,no_color_change,no_figure_change,not_first,update,correct,4,1011,3016,3000,0,-1.16193880139276,8.54974519796158,1600,-9.21583692669542,100,-8.62595060760486,-3.48882791062329,0,NaN
207601006,89,b_3,red,red,X,no_color_change,figure_change,not_first,update,correct,16,1023,3029,2775,0,7.43951364004473,16.3557082990906,250,-0.196627114845171,100,5.44511081075574,3.63495761334561,1,350
207601006,90,b_3,red,red,Y,no_color_change,figure_change,not_first,update,correct,2,1009,3014,2625,0,6.88229782744049,27.1432354079395,1775,-10.1392500458283,650,-1.26553917807847,-0.19383660694281,0,NaN
207601006,91,b_3,red,red,Y,no_color_change,no_figure_change,not_first,update,correct,15,1021,3026,3300,0,6.13562165135028,23.3234195531789,1700,-4.47789093506641,1450,-2.15232506517393,4.17179880033247,1,375
207601006,92,b_3,red,red,Y,no_color_change,no_figure_change,not_first,update,correct,22,1030,3036,2800,0,0.580559928083176,15.4371705578238,1175,-11.3362869891671,2075,2.90098722048766,-9.96764040398934,0,NaN
207601006,93,b_3,blue,red,X,color_change,figure_change,not_first,no_update,correct,13,1020,3024,2925,0,-6.22304140044972,1.45381770920196,1375,-14.0067975179283,175,-10.9901832799462,-3.10373978503281,2,162.5
207601006,94,b_3,blue,red,X,no_color_change,no_figure_change,not_first,no_update,correct,22,1031,3036,3075,0,2.0504047381677,11.0439423128632,2425,-7.04418272865598,2475,-1.69366599286977,-3.86921802654486,1,225
207601006,95,b_3,red,red,Y,color_change,figure_change,not_first,update,correct,11,1018,3023,2850,0,-6.37962688141926,6.54058045797659,2350,-13.7062362308855,1350,-0.829004977737682,-7.39461316705857,0,NaN
207601006,96,b_3,red,red,Y,no_color_change,no_figure_change,not_first,update,correct,22,1028,3034,2625,0,0.876998352718779,26.9771997101574,125,-13.6444398857835,1200,7.81185376845016,9.64884708155628,1,125
207601006,97,b_3,red,red,X,no_color_change,figure_change,not_first,update,correct,9,1015,3020,1775,0,10.8311838803983,27.5482471792901,1150,0.407321492299673,825,1.40829604414309,7.7322453125429,0,NaN
207601006,98,b_3,blue,red,Y,color_change,figure_change,not_first,no_update,correct,16,1023,3029,750,0,4.77000833744458,26.9919512234463,575,-11.9663854702647,725,-1.48620094520703,12.0673580979725,0,NaN
207601006,99,b_3,blue,red,Y,no_color_change,no_figure_change,not_first,no_update,correct,21,1028,0,1500,0,21.5739146451369,40.2748710143143,975,4.14544884780248,425,7.29557214431475,25.6632083953546,0,NaN
207601006,100,b_3,red,red,Y,color_change,no_figure_change,not_first,update,correct,527,1534,4,600,0,-2.23181885038182,9.93183199149324,300,-10.690414704542,600,0.749721504886324,-10.690414704542,0,NaN
207601006,101,b_3,blue,red,X,color_change,figure_change,not_first,no_update,correct,769,1776,3782,475,0,-8.35599448039204,6.17101477425855,100,-17.2744710038483,425,0.651002148762331,-11.4318405302708,0,NaN
207601006,102,b_3,red,red,Y,color_change,figure_change,not_first,update,correct,433,1440,0,575,0,14.5369768881679,26.0476830925871,400,-3.2218016546026,300,20.4602777648952,0.0734903267465512,0,NaN
207601006,103,b_3,red,red,Y,no_color_change,no_figure_change,not_first,update,correct,644,1652,120,1175,0,13.5592925072672,34.9594557861553,350,0.513642413095567,75,25.6482308460803,7.92421391529666,0,NaN
207601006,104,b_3,red,red,Y,no_color_change,no_figure_change,not_first,update,correct,578,1586,3590,1175,0,6.12328662354218,19.9914015477214,1175,-6.25783542168517,225,-4.47217974047115,19.9914015477214,0,NaN
207601006,105,b_3,red,red,X,no_color_change,figure_change,not_first,update,correct,424,1431,3435,1300,0,10.2648750907084,28.6122554154131,750,-1.67657777346456,475,15.5413070613708,4.41130702790615,0,NaN
207601006,107,b_4,blue,red,Y,color_change,figure_change,not_first,no_update,correct,22,1032,3036,2475,0,7.54425030437155,19.3451341779729,900,-8.57816241021548,2175,18.9598089584996,6.47040851955308,1,125
207601006,108,b_4,red,red,Y,color_change,no_figure_change,not_first,update,correct,21,1028,3034,2600,0,6.76510315628001,25.7649599111918,2550,-6.81172858320794,1475,-0.732474982594496,14.8230734432099,0,NaN
207601006,109,b_4,blue,red,X,color_change,figure_change,not_first,no_update,correct,21,1028,3033,3225,0,-2.60919438049614,16.2940081832682,50,-18.9298758639821,1400,16.2940081832682,-13.0368824984396,0,NaN
208278119,2,b_0,red,blue,Y,color_change,no_figure_change,not_first,no_update,correct,17,1024,3029,2825,0,-0.022662620496918,10.7084239524431,2625,-7.31835097385337,1200,0,10.7084239524431,1,225
208278119,3,b_0,blue,blue,X,color_change,figure_change,not_first,update,correct,6,1014,3018,2300,0,-7.65779963744926,6.27798331032508,175,-20.4484753570109,1700,-2.08064142652354,-12.4578648458035,1,125
208278119,4,b_0,blue,blue,Y,no_color_change,figure_change,not_first,update,correct,16,1022,3028,3275,0,-4.78423238441197,1.05748415946402,1900,-11.0083824482121,200,0,-2.12918924897689,1,150
208278119,5,b_0,blue,blue,Y,no_color_change,no_figure_change,not_first,update,correct,5,1012,3016,1925,0,3.09571179363493,8.08903903303055,1000,-0.962293835548635,50,-0.962293835548635,3.57390328199274,1,225
208278119,6,b_0,red,blue,Y,color_change,no_figure_change,not_first,no_update,correct,17,1024,3028,2300,0,-1.13288720005175,3.46826839357865,1650,-7.33817221774177,1175,-1.79692734852406,-7.00374351505231,2,275
208278119,7,b_0,blue,blue,X,color_change,figure_change,not_first,update,correct,2,1010,3015,3450,0,4.32845469144698,15.9494598058964,2850,-6.83149939238568,2000,2.55863894391636,15.9494598058964,0,NaN
208278119,8,b_0,blue,blue,X,no_color_change,no_figure_change,not_first,update,correct,24,1030,3035,3225,0,6.1922405881685,12.106676368353,2525,1.03034281488628,75,1.03034281488628,5.23199025613243,0,NaN
208278119,10,b_1,blue,blue,X,no_color_change,figure_change,not_first,update,correct,5,1013,3018,3200,0,-5.19137956293259,0.606876343733802,650,-11.2489503242828,2050,-3.4772803522543,-6.98592690088084,0,NaN
208278119,11,b_1,red,blue,X,color_change,no_figure_change,not_first,no_update,correct,14,1021,3026,2875,0,-2.48838626221418,1.91661215983937,1575,-7.70751889992546,1350,0.05584686225383,-1.18147622596901,0,NaN
208278119,12,b_1,blue,blue,Y,color_change,figure_change,not_first,update,correct,4,1012,3017,2350,0,-1.89461580712623,5.08601825251894,300,-8.63870125797968,175,-0.604589848278422,-3.25833739999868,0,NaN
208278119,13,b_1,blue,blue,X,no_color_change,figure_change,not_first,update,correct,15,1023,3028,3075,0,14.8741951632352,27.3007597745895,1625,-0.600895956275139,50,-0.600895956275139,12.0619374481295,0,NaN
208278119,14,b_1,red,blue,X,color_change,no_figure_change,not_first,no_update,correct,140,1147,3153,3125,0,3.78098513254149,8.70541052670309,2150,-4.11824706211814,2825,-1.61340765678752,-3.02955972143012,1,275
208278119,15,b_1,blue,blue,X,color_change,no_figure_change,not_first,update,correct,14,1021,3026,3075,0,-3.58229831911773,4.3233230310779,2100,-9.66747541049622,700,-2.02534958874872,-8.29569822109916,0,NaN
208278119,16,b_1,red,blue,Y,color_change,figure_change,not_first,no_update,correct,23,1030,3035,3175,0,-3.82936344929497,0.579848601037597,200,-7.38808943420314,1025,0.0751853930418207,-0.979337940134428,1,175
208278119,17,b_1,blue,blue,X,color_change,figure_change,not_first,update,correct,12,1019,3024,2875,0,0.0593059944537861,7.87165907402877,575,-8.51543542511058,2325,0.640911204705887,3.07937116648925,0,NaN
208278119,19,b_2,red,blue,Y,color_change,figure_change,not_first,no_update,correct,6,1016,3021,2525,0,6.26747423493223,14.2931110363217,2475,-2.51849271705849,100,-0.296071753860346,13.0841121495327,0,NaN
208278119,20,b_2,blue,blue,Y,color_change,no_figure_change,not_first,update,correct,17,1023,3029,2875,0,0.753964268932285,12.2101448515518,500,-8.90835994991957,2650,0.370150555854991,-5.05711643279723,0,NaN
208278119,21,b_2,red,blue,X,color_change,figure_change,not_first,no_update,correct,6,1014,3018,2925,0,1.32721662383584,11.8541499679168,2000,-5.6846685491694,2675,2.13628772477148,-4.53550649333815,1,275
208278119,23,b_3,blue,blue,Y,no_color_change,no_figure_change,not_first,update,correct,10,1017,3021,2850,0,0.764065434477186,10.3071704675568,1325,-6.32333824048486,2675,2.80611586043028,-0.530531952443681,0,NaN
208278119,24,b_3,red,blue,Y,color_change,no_figure_change,not_first,no_update,correct,21,1027,3032,2925,0,0.404506406781136,5.90500838264192,325,-5.92905246637653,2450,2.87851398819217,0.996955144668874,2,187.5
208278119,25,b_3,blue,blue,X,color_change,figure_change,not_first,update,correct,8,1016,3022,2475,0,-4.88747094472053,5.83166420196801,850,-15.4105023201446,1550,0.364193024382843,-2.26232297327934,1,125
208278119,26,b_3,red,blue,X,color_change,no_figure_change,not_first,no_update,correct,22,1028,3034,2725,0,-1.44147345716654,10.527470683524,2650,-12.5419229370903,1750,1.45942375995233,10.527470683524,0,NaN
208278119,27,b_3,red,blue,X,no_color_change,no_figure_change,not_first,no_update,correct,9,1016,3020,3250,0,-4.06442617573677,7.65967798923799,2425,-15.4745884120147,1775,0.249260039425948,-3.74044519271797,0,NaN
208278119,28,b_3,blue,blue,Y,color_change,figure_change,not_first,update,correct,16,1024,3028,2175,0,1.99041323326747,8.21473384798124,700,-3.4219685971544,200,-2.05865725356094,1.11097760119449,0,NaN
208278119,29,b_3,blue,blue,X,no_color_change,figure_change,not_first,update,correct,9,1017,3022,2275,0,4.78454558644748,16.4330854261217,2050,-1.88035647414242,1700,-0.436570226686669,11.3044524342186,0,NaN
208278119,30,b_3,red,blue,Y,color_change,figure_change,not_first,no_update,correct,22,1029,3033,2750,0,-6.76046215956163,4.27839686947341,1250,-15.3956541185358,2625,-8.2010377139317,-11.015003073947,0,NaN
208278119,31,b_3,red,blue,Y,no_color_change,no_figure_change,not_first,no_update,correct,8,1015,3020,3200,0,-5.37828860601464,6.41041003058837,1425,-14.0902872777018,2725,-1.59049530523464,-13.714839186396,0,NaN
208278119,33,b_0,blue,blue,X,no_color_change,figure_change,not_first,update,correct,22,1030,3035,3025,0,-5.03955752645993,3.94861318930654,2125,-14.0230136325432,1450,1.06135586704407,-8.39247552964146,0,NaN
208278119,34,b_0,blue,blue,Y,no_color_change,figure_change,not_first,update,correct,11,1017,3021,3025,0,6.29626117999597,16.7652663674092,1850,-2.89658677055984,725,0.403150673329378,14.9720504785297,0,NaN
208278119,35,b_0,red,blue,X,color_change,figure_change,not_first,no_update,correct,219,1225,3230,2800,0,-3.76243889608392,5.36036769628866,400,-13.0052657293307,1875,-3.11836129055607,-9.23167399525902,1,125
208278119,36,b_0,red,blue,Y,no_color_change,figure_change,not_first,no_update,correct,10,1018,3023,2950,0,7.20691063842563,14.3833845326383,2125,0.0961926335060639,50,0.0961926335060639,7.17514299603852,0,NaN
208278119,38,b_1,blue,blue,Y,no_color_change,no_figure_change,not_first,update,correct,11,1019,3023,2675,0,-2.21659433954231,9.23713587479457,2600,-11.7558902919814,1250,-0.415109120479585,7.20012091383612,0,NaN
208278119,39,b_1,red,blue,X,color_change,figure_change,not_first,no_update,correct,21,1031,3035,3275,0,-5.67831181982681,-0.594666798594943,1775,-12.1676149013011,2800,-1.23306782763568,-11.9659624993816,0,NaN
208278119,40,b_1,red,blue,Y,no_color_change,figure_change,not_first,no_update,correct,9,1015,3020,3050,0,5.07347318418292,14.9932234761594,2075,-5.25191562898861,1800,1.00595193712088,6.23505984832867,0,NaN
208278119,41,b_1,blue,blue,X,color_change,figure_change,not_first,update,correct,20,1028,3033,2600,0,6.64758897854959,14.2150166685317,1925,-3.74498307811514,50,-3.74498307811514,10.2426490614318,0,NaN
208278119,42,b_1,red,blue,Y,color_change,figure_change,not_first,no_update,correct,7,1014,0,1500,0,-4.5695947997659,-0.172780385744019,100,-8.74363167376042,1425,-0.172780385744019,-5.16830509050671,0,NaN
208278119,43,b_1,red,blue,Y,no_color_change,no_figure_change,not_first,no_update,correct,1591,2598,4603,1250,0,-3.74157318797797,0.67336038805017,250,-7.59251595136428,1100,-1.27159784320686,-1.18823688634077,0,NaN
208278119,44,b_1,red,blue,Y,no_color_change,no_figure_change,not_first,no_update,correct,6,1012,3018,3075,0,-5.26828170572978,4.06255089111588,300,-11.8673117177663,900,1.41462407105095,-7.32017810401052,1,125
208278119,45,b_1,red,blue,Y,no_color_change,no_figure_change,not_first,no_update,correct,208,1214,3219,2650,0,8.69354674393199,20.5087808520077,1975,-1.65077853641645,50,-1.65077853641645,9.54932534057586,0,NaN
208278119,46,b_1,blue,blue,Y,color_change,no_figure_change,not_first,update,correct,3,1011,3016,2725,0,2.12657463630901,11.2785155396739,1775,-4.34293139467803,50,-4.34293139467803,-3.14228691874413,0,NaN
208278119,48,b_2,blue,blue,Y,no_color_change,no_figure_change,not_first,update,correct,21,1028,3034,3075,0,1.34167637407568,11.3868781987644,1775,-5.2766720320768,475,-1.09223043633314,2.54320440284913,0,NaN
208278119,49,b_2,red,blue,X,color_change,figure_change,not_first,no_update,correct,230,1240,3244,3000,0,-3.13633217050779,3.92084621096859,325,-8.62838151271089,2450,-4.56111682743428,-5.18802461052113,1,200
208278119,50,b_2,red,blue,Y,no_color_change,figure_change,not_first,no_update,correct,15,1022,3028,2975,0,-1.14468269383679,4.86625633240375,275,-6.50092407716045,1550,2.28337816207653,-3.71941057078266,0,NaN
208278119,51,b_2,blue,blue,X,color_change,figure_change,not_first,update,correct,5,1012,3017,2425,0,12.2354045094059,23.8061763136293,1675,0.259971838170216,50,0.259971838170216,11.8922649269486,0,NaN
208278119,52,b_2,blue,blue,X,no_color_change,no_figure_change,not_first,update,correct,15,1021,3027,2850,0,-0.131086516978797,9.18885590858969,850,-8.21104053941893,2775,-4.59581128242424,-7.09508997561392,0,NaN
208278119,53,b_2,blue,blue,X,no_color_change,no_figure_change,not_first,update,correct,251,1258,3264,3175,0,1.33067871253879,8.45887029394638,2075,-3.42304478821177,325,-0.887620156805156,-0.299600813563899,1,250
208278119,54,b_2,blue,blue,Y,no_color_change,figure_change,not_first,update,correct,22,1029,3034,3000,0,1.78659073473743,9.69135948237184,1675,-5.92936711197746,100,-4.647962611927,3.89874135121732,0,NaN
208278119,56,b_3,red,blue,Y,color_change,no_figure_change,not_first,no_update,correct,21,1029,3034,2950,0,2.97442747601372,10.7724323401349,2275,-5.15965166908563,200,1.11798855971998,-2.29275164347307,0,NaN
208278119,57,b_3,red,blue,X,no_color_change,figure_change,not_first,no_update,correct,9,1016,3022,2375,0,1.70166315395955,7.62775527381767,1425,-3.75758851070546,1350,-2.1650796990899,4.63464674627808,1,150
208278119,58,b_3,blue,blue,X,color_change,no_figure_change,not_first,update,correct,168,1176,3181,2825,0,5.30441939686063,16.9520620309793,500,-4.56699663723832,2650,2.1023800947047,1.353959344996,0,NaN
208278119,59,b_3,red,blue,X,color_change,no_figure_change,not_first,no_update,correct,6,1013,3018,3150,0,-4.396576539663,5.80287682061125,300,-16.8295352044143,2825,-1.1816543545617,-14.44622453356,0,NaN
208278119,60,b_3,blue,blue,Y,color_change,figure_change,not_first,update,correct,16,1023,3028,2925,0,7.00856884366988,22.1156335651599,1650,-1.94582578185681,550,-0.42295708380577,7.48734476693838,0,NaN
208278119,61,b_3,blue,blue,Y,no_color_change,no_figure_change,not_first,update,correct,155,1161,3167,2575,0,7.03216737886603,19.0255520006887,1975,-1.50479497117279,825,0.92784075653762,6.99518555790345,0,NaN
208278119,62,b_3,blue,blue,Y,no_color_change,no_figure_change,not_first,update,correct,15,1021,3026,3200,0,2.57162178025285,12.0033492116531,875,-5.4449944438832,2850,-0.453425753961127,-5.4449944438832,0,NaN
208278119,63,b_3,blue,blue,X,no_color_change,figure_change,not_first,update,correct,3,1010,3015,2550,0,2.49132377205076,9.24440709578909,1900,-1.43739944045338,1425,0.285102327345029,2.9405917256787,1,150
208278119,64,b_3,red,blue,Y,color_change,figure_change,not_first,no_update,correct,14,1020,3026,2950,0,9.63422896404307,22.4785045455547,1825,0.137859451487699,100,0.666654644040079,15.6021632712765,1,125
208278119,65,b_3,blue,blue,X,color_change,figure_change,not_first,update,correct,22,1030,3034,3025,0,-3.96582516880182,7.99631711842417,1750,-12.0223762956349,2850,0.3147538467977,-12.0223762956349,0,NaN
208278119,66,b_3,red,blue,Y,color_change,figure_change,not_first,no_update,correct,11,1019,3024,3050,0,1.86724749131964,14.7885264122614,600,-9.81865335491294,2550,1.00871633874773,-3.09010783300509,0,NaN
208278119,68,b_0,red,blue,Y,color_change,figure_change,not_first,no_update,correct,2,1011,3015,1775,0,6.70341751383846,19.7076768420738,350,-9.76235265234081,125,-1.14842425509185,-0.991496717128996,0,NaN
208278119,69,b_0,blue,blue,Y,color_change,no_figure_change,not_first,update,correct,16,1022,3029,2025,0,-0.609272955733996,12.3175172150519,425,-12.1661121077176,1700,0.651883101022463,-3.21250580305366,0,NaN
208278119,70,b_0,red,blue,X,color_change,figure_change,not_first,no_update,correct,3,1009,3014,2375,0,2.89809778788898,13.0386742170222,2000,-3.76608097606595,1775,4.92725599599297,-0.428326813025535,0,NaN
208278119,71,b_0,red,blue,Y,no_color_change,figure_change,not_first,no_update,correct,14,1021,3026,2800,0,-5.00979886503793,3.62669941569841,2075,-10.7865524288332,1700,-6.449864238633,-8.67225702872898,1,250
208278119,72,b_0,blue,blue,Y,color_change,no_figure_change,not_first,update,correct,22,1030,3036,3100,0,2.64799259490327,11.8623964115582,1275,-3.3015344297628,2825,0.602680484873503,-3.0195254481616,0,NaN
208278119,73,b_0,blue,blue,X,no_color_change,figure_change,not_first,update,correct,13,1020,3023,2825,0,1.7976099813407,7.69439044333855,1200,-4.43555156037624,100,-4.43555156037624,3.71479473863765,1,250
208278119,74,b_0,red,blue,Y,color_change,figure_change,not_first,no_update,correct,22,1030,3035,3075,0,-5.53332686660069,10.2141311017755,2200,-14.0569263032968,1650,-4.85073872027081,-0.789463037013562,0,NaN
208278119,76,b_1,red,blue,Y,color_change,figure_change,not_first,no_update,correct,14,1023,3028,2750,0,1.84945758829801,11.7989425326521,2275,-3.1300082608446,2500,-0.0503178543199141,-2.18288360925612,0,NaN
208278119,77,b_1,blue,blue,X,color_change,figure_change,not_first,update,correct,6,1016,3022,2875,0,7.29460705751848,20.8006228900004,2200,-0.745013459735461,475,-0.482458081675844,2.47063604794805,0,NaN
208278119,78,b_1,blue,blue,Y,no_color_change,figure_change,not_first,update,correct,211,1218,3223,2600,0,4.65427330352431,11.4471063787834,450,-1.0298728186927,75,-1.0298728186927,2.48210588583261,0,NaN
208278119,79,b_1,red,blue,X,color_change,figure_change,not_first,no_update,correct,250,1257,3264,3100,0,-6.41225774461955,5.61954180809468,2550,-15.2243913658635,75,-14.9889877820138,-13.9546756623013,0,NaN
208278119,81,b_2,red,blue,X,color_change,figure_change,not_first,no_update,correct,131,1139,3144,2750,0,8.53305966036442,25.0894708593362,2000,-0.849651326070031,1225,9.51827344512817,7.60586477274303,1,250
208278119,82,b_2,red,blue,X,no_color_change,no_figure_change,not_first,no_update,correct,21,1028,3033,2925,0,6.13451845899344,14.9237960222764,350,-2.3838890539275,50,-2.3838890539275,1.67825488566584,2,162.5
208278119,83,b_2,red,blue,X,no_color_change,no_figure_change,not_first,no_update,correct,7,1014,3019,2625,0,-2.05463611844905,13.0349831667864,250,-12.1875051940113,2600,-1.74703456579913,-11.9343144551413,1,125
208278119,84,b_2,blue,blue,Y,color_change,figure_change,not_first,update,correct,16,1022,3027,3100,0,2.85062536416198,7.79617988646969,1050,-1.12653473656081,525,0.0463474261520531,-0.144470355392897,1,125
208278119,85,b_2,red,blue,Y,color_change,no_figure_change,not_first,no_update,correct,5,1014,3018,3100,0,6.97828117666665,20.5116215636994,1500,-1.92815996778823,2725,-0.0774987390219195,0.478197526534657,0,NaN
208278119,86,b_2,red,blue,Y,no_color_change,no_figure_change,not_first,no_update,correct,16,1023,3029,3150,0,7.45667655731218,18.6487507873189,850,-1.97522569808945,75,0.755826159983201,14.7171950451396,0,NaN
208278119,87,b_2,blue,blue,X,color_change,figure_change,not_first,update,correct,2,1009,3015,2975,0,2.85731029163911,10.654854455371,1375,-2.76219970004423,1675,-0.12886716218722,3.29074271583363,1,225
208278119,88,b_2,blue,blue,Y,no_color_change,figure_change,not_first,update,correct,15,1021,3026,3100,0,-2.36076464902376,7.33580854592611,1575,-11.5949658814585,1450,0.399997791084445,-5.63273465586016,1,250
208278119,89,b_2,red,blue,Y,color_change,no_figure_change,not_first,no_update,correct,23,1030,3035,2800,0,5.08892622785356,17.6903273262229,1175,-3.69950252608351,2750,-0.304097868798507,-3.33868875941232,0,NaN
208278119,90,b_2,blue,blue,Y,color_change,no_figure_change,not_first,update,correct,18,1028,3033,3025,0,11.5519622580797,24.9177744756814,2525,0.549699320854074,100,0.86982537672155,11.8670030815873,1,125
208278119,91,b_2,blue,blue,Y,no_color_change,no_figure_change,not_first,update,correct,118,1125,3129,2950,0,5.20444002748078,16.7425794318368,1625,-1.83392270630915,50,-1.83392270630915,0.436403031932954,1,125
208278119,92,b_2,red,blue,X,color_change,figure_change,not_first,no_update,correct,206,1213,3218,3200,0,-2.66359236694156,7.6831258336649,1350,-9.29270160887467,2850,-8.38616497494404,-9.29270160887467,0,NaN
208278119,93,b_2,red,blue,Y,no_color_change,figure_change,not_first,no_update,correct,22,1030,3036,3125,0,5.44070068562812,13.0380221893838,1825,-0.279517431723463,75,0.327015848442912,1.65521231596807,0,NaN
208278119,94,b_2,blue,blue,X,color_change,figure_change,not_first,update,correct,9,1017,3022,2700,0,5.03900799372388,13.7433495755781,2000,0.242964085316729,75,0.292896074503872,0.518833542818101,1,250
208278119,96,b_3,blue,blue,X,no_color_change,figure_change,not_first,update,correct,17,1024,3029,3250,0,-2.09394945779709,3.31742344757318,1325,-6.324533367296,2650,-0.569683075884299,-2.92927883944763,1,175
208278119,97,b_3,red,blue,X,color_change,no_figure_change,not_first,no_update,correct,4,1010,3016,3050,0,-11.1907746475962,-2.17278173429163,200,-20.1182583325821,2750,-2.95871202497931,-18.7434949721769,0,NaN
208278119,98,b_3,blue,blue,X,color_change,no_figure_change,not_first,update,correct,13,1020,3026,2550,0,7.93580206082357,19.2741455507857,2475,-0.928465600425483,75,0.919601362559987,19.2741455507857,0,NaN
208278119,100,b_0,blue,red,X,color_change,no_figure_change,not_first,no_update,correct,19,1026,3032,3100,0,1.49116811856167,6.96295487428681,2125,-5.97690480740357,2625,0.687759911914313,-1.4617855550399,0,NaN
208278119,101,b_0,blue,red,X,no_color_change,no_figure_change,not_first,no_update,correct,8,1016,3021,3325,0,3.53267865292025,9.90951433430786,2125,-3.73021783997895,75,-0.791656940013411,5.79690006929083,0,NaN
208278119,102,b_0,red,red,Y,color_change,figure_change,not_first,update,correct,16,1024,3029,3000,0,2.29799367088649,6.73073356036831,2350,-2.21692968593496,2050,1.63969698993182,-1.44604951736521,1,200
208278119,103,b_0,blue,red,Y,color_change,no_figure_change,not_first,no_update,correct,6,1012,3017,3125,0,0.934806607839183,5.6418756879832,2275,-2.5907678397833,1150,-0.0665241848490297,4.29613920828869,0,NaN
208278119,104,b_0,blue,red,X,no_color_change,figure_change,not_first,no_update,correct,93,1100,3105,3000,0,1.00230714868364,7.57987751887458,2275,-4.04920971158546,125,-2.93319890282983,2.99158790940199,2,137.5
208278119,105,b_0,red,red,X,color_change,no_figure_change,not_first,update,correct,7,1016,3021,2875,0,-3.31003676023657,9.10943550030568,175,-12.7678204432962,2450,3.30624186133265,-7.38464248582966,0,NaN
