participant_id,trial_id,block,border_color,dominant,figure,is_color_change,is_figure_change,is_first,is_update,is_correct,event_fixation,event_stimulus_on,event_stimulus_off,event_Trial_Offset,event_Trial_Onset,trial_mean,trial_max,trial_max_latency,trial_min,trial_min_latency,first_bin,last_bin,valid_blinks,blinks_mean
206993057,2,b_0,blue,blue,Y,no_color_change,figure_change,not_first,update,correct,109,1117,3122,2700,0,3.95775240117853,4.94363403320312,300,2.99595642089844,2175,4.35781860351562,3.10617828369141,1,125
206993057,3,b_0,blue,blue,X,no_color_change,figure_change,not_first,update,correct,24,1031,3036,2550,0,3.88778643174605,4.75784301757812,925,3.04527282714844,625,4.25626373291016,3.87934875488281,0,NaN
206993057,4,b_0,blue,blue,Y,no_color_change,figure_change,not_first,update,correct,16,1023,3027,2850,0,4.20072746276855,5.02981567382813,1975,3.04013061523438,1725,4.34728240966797,3.40567016601562,0,NaN
206993057,5,b_0,blue,blue,X,no_color_change,figure_change,not_first,update,correct,6,1013,3018,2600,0,4.33597347953103,5.75907135009766,1750,3.29736328125,900,4.24629211425781,3.93382263183594,1,125
206993057,6,b_0,blue,blue,Y,no_color_change,figure_change,not_first,update,correct,16,1022,3027,2775,0,4.66842139850963,6.22792816162109,1675,3.02669525146484,1225,3.49203491210938,3.80526733398438,0,NaN
206993057,8,b_1,blue,blue,Y,no_color_change,figure_change,not_first,update,correct,22,1030,3035,2525,0,3.86431503295898,5.78472137451172,525,2.94898986816406,2150,3.69049835205078,4.30960083007812,1,150
206993057,9,b_1,red,blue,X,color_change,figure_change,not_first,no_update,correct,12,1018,3023,2400,0,3.91512012481689,5.16735076904297,1500,2.93417358398438,900,3.30745697021484,3.95014953613281,1,175
206993057,10,b_1,red,blue,Y,no_color_change,figure_change,not_first,no_update,correct,22,1029,3034,2550,0,4.2673379724676,6.37091064453125,2025,3.02521514892578,1075,4.2967529296875,4.72366333007812,0,NaN
206993057,11,b_1,red,blue,X,no_color_change,figure_change,not_first,no_update,correct,9,1017,3021,2675,0,4.18667992678556,5.91064453125,1200,2.90589141845703,1825,3.49524688720703,5.19959259033203,0,NaN
206993057,12,b_1,red,blue,X,no_color_change,no_figure_change,not_first,no_update,correct,22,1029,3035,2500,0,3.68392129377885,5.01942443847656,950,2.88716888427734,325,4.0491943359375,3.90521240234375,0,NaN
206993057,13,b_1,red,blue,X,no_color_change,no_figure_change,not_first,no_update,correct,69,1075,3081,2575,0,4.03965455835516,5.11124420166016,25,2.96391296386719,100,5.11124420166016,3.79302215576172,1,125
206993057,14,b_1,red,blue,X,no_color_change,no_figure_change,not_first,no_update,correct,41,1048,3053,2550,0,4.05193970420144,5.90164184570312,1825,2.94399261474609,1025,4.31977081298828,4.39640045166016,0,NaN
206993057,16,b_2,red,blue,X,color_change,figure_change,not_first,no_update,correct,387,1395,3400,1900,0,4.62468348051372,6.18031311035156,1100,3.31684112548828,125,3.31842041015625,4.21150207519531,0,NaN
206993057,17,b_2,blue,blue,Y,color_change,figure_change,not_first,update,correct,21,1027,3033,2475,0,4.47327093644576,6.10135650634766,1475,3.01693725585938,2100,5.30917358398438,3.72728729248047,1,125
206993057,18,b_2,blue,blue,X,no_color_change,figure_change,not_first,update,correct,236,1243,3248,2475,0,4.46035489169034,6.17790985107422,1550,2.99509429931641,550,4.51119232177734,3.73750305175781,0,NaN
206993057,19,b_2,blue,blue,Y,no_color_change,figure_change,not_first,update,correct,22,1030,3039,2725,0,4.21633486314253,6.052734375,2000,3.01537322998047,1575,3.72174835205078,4.93766021728516,0,NaN
206993057,20,b_2,red,blue,X,color_change,figure_change,not_first,no_update,correct,148,1154,3159,3100,0,4.37725552645597,6.01249694824219,1475,2.99836730957031,1600,4.48713684082031,5.82978820800781,0,NaN
206993057,21,b_2,blue,blue,X,color_change,no_figure_change,not_first,update,correct,21,1028,3034,2800,0,4.62666294791482,6.21951293945312,1700,3.34921264648438,575,4.60482025146484,4.49684906005859,0,NaN
206993057,22,b_2,blue,blue,X,no_color_change,no_figure_change,not_first,update,correct,22,1029,3033,2750,0,4.51043024930087,5.96718597412109,1850,3.12728118896484,1550,4.82450103759766,5.79510498046875,0,NaN
206993057,23,b_2,blue,blue,X,no_color_change,no_figure_change,not_first,update,correct,18,1024,3029,2450,0,5.03363886746493,6.41538238525391,1100,2.91656494140625,1700,5.77238464355469,5.35332489013672,0,NaN
206993057,24,b_2,blue,blue,X,no_color_change,no_figure_change,not_first,update,correct,5,1011,3015,2275,0,5.21568454395641,6.26490020751953,1025,2.99321746826172,1850,6.24987030029297,4.609375,0,NaN
206993057,25,b_2,blue,blue,Y,no_color_change,figure_change,not_first,update,correct,20,1028,3033,2500,0,4.57384768399325,6.24687957763672,775,3.04826354980469,1150,4.42942810058594,3.04971313476562,0,NaN
206993057,27,b_3,blue,blue,Y,no_color_change,no_figure_change,not_first,update,correct,26,1032,3039,3050,0,4.3066388910467,6.00588989257812,1850,2.9620361328125,1575,4.01844787597656,3.00510406494141,0,NaN
206993057,28,b_3,blue,blue,Y,no_color_change,no_figure_change,not_first,update,correct,12,1018,3023,2625,0,4.3640044819225,6.28773498535156,1125,2.86925506591797,600,4.26488494873047,4.39991760253906,0,NaN
206993057,29,b_3,red,blue,X,color_change,figure_change,not_first,no_update,correct,22,1029,3034,2275,0,4.67646650834517,6.49864959716797,1675,3.08995056152344,700,4.81935119628906,6.185546875,0,NaN
206993057,31,b_0,red,blue,Y,color_change,no_figure_change,not_first,no_update,correct,179,1185,3189,1375,0,5.56647838245739,6.55241394042969,1225,3.0606689453125,1350,3.25935363769531,3.22530364990234,0,NaN
206993057,32,b_0,red,blue,Y,no_color_change,no_figure_change,not_first,no_update,correct,128,1136,3141,2675,0,6.04390946301547,6.48793792724609,800,4.96835327148438,900,6.09783935546875,6.15956115722656,1,150
206993057,33,b_0,blue,blue,X,color_change,figure_change,not_first,update,correct,21,1028,3034,2325,0,5.14103213223544,6.78425598144531,500,2.98056030273438,1350,6.25658416748047,5.90906524658203,0,NaN
206993057,34,b_0,red,blue,X,color_change,no_figure_change,not_first,no_update,correct,34,1042,3047,2375,0,5.91685030677102,6.57548522949219,1050,4.28992462158203,825,5.80965423583984,5.20509338378906,2,137.5
206993057,36,b_1,red,blue,Y,color_change,no_figure_change,not_first,no_update,correct,53,1059,3064,1650,0,5.00314718217992,6.41087341308594,1075,3.00141906738281,300,3.06826782226562,4.90331268310547,0,NaN
206993057,37,b_1,blue,blue,Y,color_change,no_figure_change,not_first,update,correct,8,1016,3021,1975,0,5.19245736810225,6.53961181640625,1925,3.01279449462891,400,3.48073577880859,6.0269775390625,0,NaN
206993057,38,b_1,red,blue,Y,color_change,no_figure_change,not_first,no_update,correct,38,1044,3049,2175,0,5.6177952207368,6.70328521728516,2175,3.15773773193359,600,5.95164489746094,6.70328521728516,1,225
206993057,39,b_1,blue,blue,X,color_change,figure_change,not_first,update,correct,30,1039,3045,2500,0,4.82953574440696,6.35174560546875,1000,3.01638793945312,1625,5.97248077392578,3.83992767333984,0,NaN
206993057,40,b_1,blue,blue,X,no_color_change,no_figure_change,not_first,update,correct,18,1025,3031,2100,0,4.57988631304573,6.30729675292969,1475,2.95493316650391,1625,3.03571319580078,3.28511810302734,0,NaN
206993057,41,b_1,blue,blue,Y,no_color_change,figure_change,not_first,update,correct,5,1012,0,225,0,3.27709282769097,3.39285278320312,200,3.18575286865234,50,3.21166229248047,3.27135467529297,0,NaN
206993057,42,b_1,red,blue,X,color_change,figure_change,not_first,no_update,correct,1790,2798,4803,625,0,4.72781921386719,6.13920593261719,100,3.27880859375,225,3.28945159912109,5.18403625488281,0,NaN
206993057,43,b_1,blue,blue,Y,color_change,figure_change,not_first,update,correct,170,1178,3182,1050,0,5.51571381397736,6.1353759765625,750,3.07777404785156,100,3.07777404785156,6.02645111083984,0,NaN
206993057,44,b_1,red,blue,Y,color_change,no_figure_change,not_first,no_update,correct,146,1154,3159,1450,0,5.52126384603566,6.25346374511719,600,4.24968719482422,300,6.04815673828125,5.41701507568359,2,175
206993057,45,b_1,red,blue,X,no_color_change,figure_change,not_first,no_update,correct,375,1382,3388,1275,0,5.48842994839537,6.42533111572266,825,3.57654571533203,550,4.45897674560547,5.85591888427734,0,NaN
206993057,46,b_1,red,blue,Y,no_color_change,figure_change,not_first,no_update,correct,13,1020,3027,2175,0,5.68138876728628,6.69352722167969,1675,4.35369110107422,1025,5.92988586425781,5.22602844238281,1,125
206993057,47,b_1,red,blue,X,no_color_change,figure_change,not_first,no_update,correct,20,1027,3032,2150,0,5.6069775071255,6.66426086425781,725,3.83393096923828,1650,5.06692504882812,6.32480621337891,0,NaN
206993057,48,b_1,blue,blue,X,color_change,no_figure_change,not_first,update,correct,22,1029,3033,1025,0,5.95930648431545,6.75753021240234,475,4.38406372070312,950,5.88088989257813,6.34970092773438,1,250
206993057,49,b_1,red,blue,X,color_change,no_figure_change,not_first,no_update,correct,22,1031,3035,2250,0,6.44331368533048,7.20318603515625,800,5.54167175292969,2200,6.84454345703125,5.54167175292969,1,300
206993057,51,b_2,blue,blue,Y,no_color_change,no_figure_change,not_first,update,correct,24,1032,3036,275,0,5.02249272664388,6.18943786621094,50,3.04390716552734,275,4.82259368896484,3.73566436767578,0,NaN
206993057,52,b_2,blue,blue,X,no_color_change,figure_change,not_first,update,correct,16,1025,3029,2500,0,5.78303796594793,6.4766845703125,1600,3.91886138916016,1125,5.93457794189453,4.59851837158203,1,225
206993057,53,b_2,blue,blue,Y,no_color_change,figure_change,not_first,update,correct,5,1013,3019,950,0,4.82191389034956,6.58985137939453,850,2.86026763916016,525,4.50029754638672,6.29928588867188,0,NaN
206993057,54,b_2,blue,blue,Y,no_color_change,no_figure_change,not_first,update,correct,14,1020,3025,2650,0,6.17333364486694,6.55825042724609,1125,5.62773132324219,1375,6.12234497070312,6.11148834228516,0,NaN
206993057,55,b_2,red,blue,Y,color_change,no_figure_change,not_first,no_update,correct,38,1045,3050,2550,0,6.11913694034923,6.71165466308594,900,5.19805145263672,1000,5.52336883544922,6.06598663330078,2,137.5
206993057,56,b_2,blue,blue,Y,color_change,no_figure_change,not_first,update,correct,14,1022,3027,2475,0,5.95550493760542,6.55685424804688,2150,4.64885711669922,775,4.76885986328125,5.58670806884766,0,NaN
206993057,57,b_2,blue,blue,X,no_color_change,figure_change,not_first,update,correct,21,1028,3033,2275,0,5.74719654430043,6.39987182617188,1950,4.48625183105469,625,5.43738555908203,6.17446899414062,1,175
206993057,58,b_2,blue,blue,X,no_color_change,no_figure_change,not_first,update,correct,12,1019,3025,2050,0,5.98069670142197,6.48709106445312,750,4.56236267089844,1800,6.14041900634766,5.748291015625,1,225
206993057,59,b_2,red,blue,Y,color_change,figure_change,not_first,no_update,correct,24,1030,3035,2300,0,5.72940644350919,6.42813873291016,1150,3.74752807617188,1600,6.34717559814453,6.12505340576172,1,225
206993057,60,b_2,blue,blue,Y,color_change,no_figure_change,not_first,update,correct,11,1017,3023,2175,0,5.4968112200156,6.452392578125,1725,4.29218292236328,100,5.30336761474609,6.01145935058594,0,NaN
206993057,61,b_2,blue,blue,X,no_color_change,figure_change,not_first,update,correct,21,1029,3034,2575,0,5.20934070240368,6.38105010986328,1600,3.33432006835938,575,6.26138305664063,6.10025787353516,0,NaN
206993057,62,b_2,red,blue,Y,color_change,figure_change,not_first,no_update,correct,9,1016,3022,2150,0,5.98472959145732,6.5250244140625,275,5.07941436767578,875,6.18708801269531,5.76333618164062,2,237.5
206993057,64,b_3,red,blue,X,color_change,no_figure_change,not_first,no_update,correct,416,1423,3428,1975,0,5.71757354736328,6.59453582763672,500,3.90715026855469,25,3.90715026855469,5.26419830322266,0,NaN
206993057,65,b_3,blue,blue,X,color_change,no_figure_change,not_first,update,correct,6,1013,3018,2450,0,5.98013518073342,6.36859893798828,450,5.09368133544922,1100,5.49448394775391,6.00601959228516,1,150
206993057,66,b_3,red,blue,Y,color_change,figure_change,not_first,no_update,correct,16,1023,3029,2750,0,6.02825875715776,6.41190338134766,1625,4.83490753173828,2050,6.15684509277344,6.21064758300781,1,125
206993057,67,b_3,red,blue,X,no_color_change,figure_change,not_first,no_update,correct,21,1029,3034,2175,0,5.96562615756331,6.33528137207031,650,5.22639465332031,1300,6.07799530029297,5.79241180419922,1,125
206993057,68,b_3,red,blue,Y,no_color_change,figure_change,not_first,no_update,correct,22,1029,3034,2300,0,6.03233142332597,6.36605834960938,1525,5.15450286865234,1150,5.98285675048828,5.795166015625,0,NaN
206993057,69,b_3,blue,blue,X,color_change,figure_change,not_first,update,correct,22,1030,3035,2475,0,5.99772899801081,6.34078979492188,2075,4.87626647949219,1425,5.68629455566406,5.77112579345703,2,212.5
206993057,70,b_3,red,blue,Y,color_change,figure_change,not_first,no_update,correct,20,1027,3032,1925,0,6.02968503283216,6.43741607666016,850,5.01536560058594,1075,6.00531768798828,5.81819152832031,2,137.5
206993057,71,b_3,red,blue,Y,no_color_change,no_figure_change,not_first,no_update,correct,130,1138,3142,2250,0,5.94217009977861,6.34618377685547,100,4.88694763183594,725,5.88864898681641,6.17056274414063,1,125
206993057,72,b_3,blue,blue,Y,color_change,no_figure_change,not_first,update,correct,31,1038,3043,2400,0,6.02312395789407,6.44246673583984,975,5.24279022216797,475,6.41129302978516,5.91299438476563,0,NaN
206993057,73,b_3,blue,blue,X,no_color_change,figure_change,not_first,update,correct,22,1029,3034,1625,0,5.88022026648888,6.49315643310547,725,4.44165802001953,975,6.08673095703125,6.03904724121094,0,NaN
206993057,74,b_3,red,blue,Y,color_change,figure_change,not_first,no_update,correct,142,1150,3155,2000,0,5.95589790344238,6.56568145751953,125,4.54750061035156,850,5.08961486816406,5.2879638671875,1,125
206993057,75,b_3,red,blue,X,no_color_change,figure_change,not_first,no_update,correct,20,1028,3033,2300,0,5.57318184592507,6.36311340332031,1750,4.41880798339844,1975,4.81912994384766,5.26783752441406,0,NaN
206993057,76,b_3,blue,blue,X,color_change,no_figure_change,not_first,update,correct,21,1028,3035,1875,0,5.65185312906901,6.28052520751953,1800,4.35343170166016,1075,6.25396728515625,5.78192901611328,0,NaN
206993057,77,b_3,red,blue,Y,color_change,figure_change,not_first,no_update,correct,18,1025,3031,2250,0,5.84581010991877,6.46769714355469,675,4.58602905273438,1825,6.15267181396484,5.47916158040365,0,NaN
206993057,78,b_3,blue,blue,Y,color_change,no_figure_change,not_first,update,correct,21,1029,3035,2575,0,5.92073011398315,6.39247131347656,2025,4.5115966796875,75,5.1895751953125,6.07026672363281,1,150
206993057,79,b_3,blue,blue,X,no_color_change,figure_change,not_first,update,correct,127,1135,3141,2900,0,6.08509861339222,6.41352844238281,2125,5.03726959228516,750,6.25665283203125,6.12345123291016,2,187.5
206993057,80,b_3,blue,blue,Y,no_color_change,figure_change,not_first,update,correct,4,1012,3016,2800,0,5.34508167613636,6.37622833251953,1625,4.14874267578125,2175,5.58226013183594,5.18216705322266,0,NaN
206993057,81,b_3,blue,blue,X,no_color_change,figure_change,not_first,update,correct,16,1023,3028,2250,0,5.81829842654142,6.54332733154297,825,4.54264068603516,675,5.91763305664062,5.24465942382812,0,NaN
206993057,82,b_3,red,blue,Y,color_change,figure_change,not_first,no_update,correct,186,1194,3198,2275,0,5.78949017958208,6.45790863037109,1325,4.64565277099609,1525,6.16777038574219,6.14334869384766,2,125
206993057,83,b_3,blue,blue,Y,color_change,no_figure_change,not_first,update,correct,185,1191,3197,850,0,5.91893329042377,6.55314636230469,200,4.30750274658203,75,5.30899047851563,6.30591583251953,0,NaN
206993057,84,b_3,red,blue,X,color_change,figure_change,not_first,no_update,correct,143,1151,3156,2125,0,6.08485776324605,6.46971893310547,875,4.83165740966797,2125,6.24002838134766,5.89894104003906,1,175
206993057,86,b_0,blue,red,X,color_change,figure_change,not_first,no_update,correct,47,551,1554,3325,0,6.25529436631636,6.55079650878906,600,5.98256683349609,100,6.16754150390625,6.08757019042969,0,NaN
206993057,87,b_0,red,red,X,color_change,no_figure_change,not_first,update,correct,6,509,1512,3200,0,6.16812467575073,6.4952392578125,225,5.95960235595703,1850,6.09201049804688,6.09738922119141,3,175
206993057,88,b_0,blue,red,X,color_change,no_figure_change,not_first,no_update,correct,11,513,1516,3400,0,6.23784203962846,6.43017578125,1400,6.06729125976562,1575,6.08609771728516,6.26750946044922,0,NaN
206993057,89,b_0,red,red,X,color_change,no_figure_change,not_first,update,correct,4,508,1510,2350,0,6.07449063387784,6.37416839599609,850,5.56684112548828,2000,6.17849731445312,5.92827606201172,1,250
206993057,90,b_0,blue,red,X,color_change,no_figure_change,not_first,no_update,correct,12,516,1519,3025,0,6.0952506498857,6.50438690185547,1325,5.4061279296875,400,6.08896636962891,6.08988952636719,2,212.5
206993057,91,b_0,blue,red,Y,no_color_change,figure_change,not_first,no_update,correct,3,506,1510,2900,0,6.0858456438238,6.56697082519531,1500,5.23089599609375,1050,6.36219024658203,5.96786499023438,1,250
206993057,92,b_0,red,red,X,color_change,figure_change,not_first,update,correct,8,511,1513,3075,0,6.09875895760276,6.49559020996094,175,5.20672607421875,1300,6.04857635498047,6.02799987792969,2,212.5
206993057,93,b_0,red,red,Y,no_color_change,figure_change,not_first,update,correct,12,515,1517,2275,0,6.09574343941428,6.51647186279297,575,5.22940826416016,1850,6.21553802490234,6.3671875,1,225
206993057,94,b_0,blue,red,Y,color_change,no_figure_change,not_first,no_update,correct,80,584,1587,3050,0,6.08922248051084,6.46125030517578,1625,5.56504058837891,1550,5.74224853515625,6.27964782714844,1,300
206993057,96,b_1,red,red,X,no_color_change,figure_change,not_first,update,correct,10,513,1516,1425,0,5.80402253803454,6.463134765625,1325,4.41629028320312,725,6.43715667724609,6.37863922119141,0,NaN
206993057,97,b_1,blue,red,Y,color_change,figure_change,not_first,no_update,correct,11,515,1518,2000,0,6.09951772689819,6.52911376953125,1300,5.67381286621094,1925,6.22014617919922,6.06957244873047,1,275
206993057,98,b_1,red,red,X,color_change,figure_change,not_first,update,correct,24,528,1531,1600,0,6.03600168228149,6.58628082275391,575,5.09952545166016,75,5.19931793212891,6.382568359375,1,125
206993057,99,b_1,blue,red,Y,color_change,figure_change,not_first,no_update,correct,13,516,1519,1125,0,5.97375776502821,6.59443664550781,275,5.09436798095703,525,6.26737213134766,5.49310302734375,0,NaN
206993057,100,b_1,blue,red,Y,no_color_change,no_figure_change,not_first,no_update,correct,59,563,1565,1500,0,6.10517345491003,6.52616119384766,425,5.33666229248047,950,6.27108001708984,6.07540130615234,1,150
206993057,101,b_1,red,red,X,color_change,figure_change,not_first,update,correct,2,505,0,1825,0,6.24212557648959,6.61827850341797,550,5.98307037353516,1625,6.39835357666016,6.24242401123047,0,NaN
206993057,102,b_1,blue,red,Y,color_change,figure_change,not_first,no_update,correct,648,1153,2157,1625,0,6.08417545665394,6.55907440185547,825,5.29934692382812,1425,6.00790405273438,5.94328308105469,0,NaN
206993057,103,b_1,blue,red,Y,no_color_change,no_figure_change,not_first,no_update,correct,2,506,0,1875,0,6.11327952067057,6.36399078369141,275,5.78783416748047,975,6.27640533447266,6.22708892822266,2,125
206993057,104,b_1,blue,red,X,no_color_change,figure_change,not_first,no_update,correct,570,1074,2076,2425,0,4.79268065365878,6.22408294677734,1025,3.4312744140625,1500,5.88419342041016,4.40110015869141,0,NaN
206993057,105,b_1,blue,red,X,no_color_change,no_figure_change,not_first,no_update,correct,11,515,1517,2775,0,5.10782449895685,6.2196044921875,1425,3.76060485839844,725,5.57466888427734,5.88990020751953,1,125
206993057,106,b_1,blue,red,Y,no_color_change,figure_change,not_first,no_update,correct,7,510,1513,1525,0,5.77404225257135,6.43111419677734,950,4.74559020996094,450,6.1544189453125,6.04922485351562,0,NaN
206993057,108,b_2,red,red,Y,no_color_change,figure_change,not_first,update,correct,61,566,1568,1825,0,5.26575995780326,6.38227081298828,1850,4.28075408935547,25,4.28075408935547,6.38227081298828,0,NaN
206993057,109,b_2,blue,red,Y,color_change,no_figure_change,not_first,no_update,correct,7,510,1513,2175,0,5.61092087318157,6.69202423095703,275,4.32571411132812,1425,4.65637969970703,4.51450347900391,0,NaN
206993057,110,b_2,blue,red,X,no_color_change,figure_change,not_first,no_update,correct,11,514,1517,2275,0,5.78059491244229,6.69532012939453,1875,4.33168029785156,975,5.28961181640625,5.96475982666016,0,NaN
206993057,111,b_2,blue,red,X,no_color_change,no_figure_change,not_first,no_update,correct,61,564,1567,2225,0,5.67477382313121,6.46824645996094,50,4.37080383300781,625,4.99172973632812,5.64858245849609,0,NaN
206993057,113,b_3,blue,red,Y,color_change,no_figure_change,not_first,no_update,correct,9,513,1515,2275,0,5.46518109061501,6.34198760986328,1500,4.26173400878906,1100,4.62534332275391,4.98374176025391,0,NaN
206993057,114,b_3,blue,red,X,no_color_change,figure_change,not_first,no_update,correct,102,607,1609,2500,0,5.63530202345415,6.34033966064453,1525,4.35848236083984,1825,5.86612701416016,5.9361572265625,0,NaN
206993057,115,b_3,red,red,X,color_change,no_figure_change,not_first,update,correct,10,513,1516,2000,0,5.45899289920006,6.24812316894531,1050,4.21607208251953,1975,5.66750335693359,5.39295959472656,1,200
206993057,116,b_3,red,red,Y,no_color_change,figure_change,not_first,update,correct,5,509,1512,2500,0,5.23343389684504,6.52740478515625,1300,3.78388977050781,175,5.25088500976562,4.95693969726562,0,NaN
206993057,117,b_3,blue,red,X,color_change,figure_change,not_first,no_update,correct,11,515,1518,2800,0,5.58829879760742,6.45714569091797,875,4.20795440673828,2175,4.56529998779297,4.80388641357422,2,200
206993057,118,b_3,red,red,X,color_change,no_figure_change,not_first,update,correct,11,514,1517,1525,0,5.34229721561555,6.44760894775391,625,3.27144622802734,1475,5.58908843994141,3.61885833740234,1,125
207280074,2,b_0,red,red,Y,no_color_change,figure_change,not_first,update,correct,21,1031,3037,2200,0,3.14666160840667,3.41683197021484,1675,2.88320159912109,475,3.19561767578125,3.20303344726562,0,NaN
207280074,3,b_0,red,red,Y,no_color_change,no_figure_change,not_first,update,correct,9,1015,3019,2100,0,3.00857404821059,3.2535400390625,25,2.67391204833984,1750,3.2535400390625,3.05283355712891,0,NaN
207280074,4,b_0,red,red,Y,no_color_change,no_figure_change,not_first,update,correct,14,1020,0,1125,0,3.06064215766059,3.17830657958984,900,2.85955810546875,1125,3.13169097900391,2.85955810546875,0,NaN
207280074,5,b_0,blue,red,Y,color_change,no_figure_change,not_first,no_update,correct,228,1235,3239,1875,0,3.05454143724943,3.21340942382812,600,2.80498504638672,1400,3.13676452636719,3.13800811767578,0,NaN
207280074,6,b_0,blue,red,X,no_color_change,figure_change,not_first,no_update,correct,15,1023,3027,1575,0,3.05393231104291,3.47160339355469,1500,2.41027069091797,1375,3.18805694580078,2.70204925537109,0,NaN
207280074,7,b_0,red,red,X,color_change,no_figure_change,not_first,update,correct,44,1051,3057,1775,0,3.0963872273763,3.30884552001953,1525,2.78760528564453,175,2.81352996826172,3.15083312988281,1,150
207280074,8,b_0,red,red,X,no_color_change,no_figure_change,not_first,update,correct,17,1026,3032,3050,0,3.10181129455566,3.32428741455078,1150,2.78524017333984,225,2.9842529296875,3.132080078125,0,NaN
207280074,9,b_0,red,red,X,no_color_change,no_figure_change,not_first,update,correct,23,1029,3034,2875,0,3.12643615722656,3.40258026123047,1350,2.78286743164062,2325,3.24913787841797,2.9442138671875,0,NaN
207280074,10,b_0,blue,red,X,color_change,no_figure_change,not_first,no_update,correct,11,1018,3024,2850,0,3.21018188476563,3.38010406494141,600,2.96485137939453,2475,3.13450622558594,2.97478485107422,1,275
207280074,11,b_0,red,red,X,color_change,no_figure_change,not_first,update,correct,23,1029,3034,2150,0,3.13985150359398,3.3277587890625,1750,2.89255523681641,2150,3.05990600585938,2.89255523681641,0,NaN
207280074,12,b_0,blue,red,X,color_change,no_figure_change,not_first,no_update,correct,56,1062,3067,2400,0,3.01153349876404,3.2763671875,1700,2.58246612548828,600,2.95929718017578,3.04828643798828,0,NaN
207280074,13,b_0,red,red,X,color_change,no_figure_change,not_first,update,correct,18,1024,3028,1600,0,3.23870814396785,3.4727783203125,1575,3.02976226806641,100,3.05294799804688,3.19781494140625,0,NaN
207280074,15,b_1,red,red,Y,no_color_change,figure_change,not_first,update,correct,9,1017,3022,2800,0,3.22166717529297,3.53817749023438,2400,2.89555358886719,825,3.15071868896484,3.5045166015625,0,NaN
207280074,16,b_1,red,red,X,no_color_change,figure_change,not_first,update,correct,22,1028,3034,2975,0,3.38647331237793,3.59854888916016,2175,3.06533050537109,1025,3.345703125,3.34019470214844,1,250
207280074,17,b_1,blue,red,X,color_change,no_figure_change,not_first,no_update,correct,9,1016,3021,2725,0,3.3680233001709,3.55973815917969,875,3.1351318359375,2100,3.44542694091797,3.31000518798828,0,NaN
207280074,18,b_1,red,red,Y,color_change,figure_change,not_first,update,correct,62,1069,3074,2850,0,3.45653575897217,3.71662139892578,1850,3.19290161132812,375,3.31982421875,3.42401123046875,0,NaN
207280074,20,b_2,blue,red,X,color_change,figure_change,not_first,no_update,correct,17,1025,3030,2600,0,3.20427642822266,3.43402099609375,500,2.94767761230469,1950,3.1358642578125,3.20498657226562,0,NaN
207280074,21,b_2,red,red,X,color_change,no_figure_change,not_first,update,correct,130,1136,3141,2500,0,3.1526106262207,3.41986083984375,1650,2.85086822509766,1000,3.25891876220703,3.08338928222656,0,NaN
207280074,22,b_2,blue,red,Y,color_change,figure_change,not_first,no_update,correct,122,1133,3138,3050,0,3.0651704788208,3.30620574951172,2275,2.84152221679688,825,3.06646728515625,3.19849395751953,0,NaN
207280074,23,b_2,blue,red,X,no_color_change,figure_change,not_first,no_update,correct,6,1013,3018,2325,0,2.98576904625021,3.21786499023438,2225,2.69763946533203,1750,3.04646301269531,2.74014282226562,0,NaN
207280074,24,b_2,blue,red,X,no_color_change,no_figure_change,not_first,no_update,correct,38,1045,3050,1900,0,3.22767203194754,3.75124359130859,1600,2.89306640625,275,2.98519897460938,3.4940185546875,0,NaN
207280074,25,b_2,red,red,X,color_change,no_figure_change,not_first,update,correct,3,1010,3015,2575,0,3.28778137207031,3.51567840576172,125,2.89618682861328,2375,3.47542572021484,2.96099853515625,1,150
207280074,27,b_3,blue,red,Y,color_change,no_figure_change,not_first,no_update,correct,12,1021,3026,2600,0,3.14474876403809,3.41767120361328,325,2.79751586914062,2250,3.17891693115234,2.93576812744141,1,125
207280074,28,b_3,red,red,X,color_change,figure_change,not_first,update,correct,68,1076,3081,2200,0,3.07378216004104,3.36826324462891,2050,2.48885345458984,75,2.80950164794922,3.20832061767578,1,150
207280074,29,b_3,red,red,X,no_color_change,no_figure_change,not_first,update,correct,5,1012,3018,2975,0,2.9774585723877,3.18228149414062,800,2.75884246826172,1325,3.07003784179688,2.92892456054688,0,NaN
207280074,30,b_3,red,red,Y,no_color_change,figure_change,not_first,update,correct,67,1073,3079,2850,0,3.14125686645508,3.443115234375,1875,2.81967163085938,925,3.13047027587891,3.08318328857422,0,NaN
207280074,32,b_0,blue,blue,Y,no_color_change,figure_change,not_first,update,correct,22,1029,3035,2550,0,3.30043632507324,3.47634887695312,1325,2.956787109375,2500,3.34683227539062,2.956787109375,0,NaN
207280074,33,b_0,blue,blue,X,no_color_change,figure_change,not_first,update,correct,9,1015,3021,2975,0,3.08716705322266,3.35719299316406,1925,2.85140228271484,175,2.92612457275391,3.09804534912109,0,NaN
207280074,34,b_0,red,blue,Y,color_change,figure_change,not_first,no_update,correct,21,1027,3032,3150,0,3.17611053466797,3.33453369140625,1900,3.00830841064453,2500,3.11962127685547,3.00830841064453,0,NaN
207280074,35,b_0,blue,blue,X,color_change,figure_change,not_first,update,correct,6,1013,3019,2750,0,3.05732810974121,3.26956939697266,1725,2.85881805419922,2500,2.95765686035156,2.85881805419922,0,NaN
207280074,36,b_0,red,blue,X,color_change,no_figure_change,not_first,no_update,correct,14,1020,3026,2800,0,2.9607006072998,3.14025115966797,1375,2.56417846679688,2500,3.03676605224609,2.56417846679688,1,150
207280074,37,b_0,blue,blue,X,color_change,no_figure_change,not_first,update,correct,6,1012,3017,2775,0,3.02165649414062,3.41788482666016,1725,2.61208343505859,2450,2.86319732666016,2.70832824707031,0,NaN
207280074,38,b_0,blue,blue,X,no_color_change,no_figure_change,not_first,update,correct,15,1022,3028,2775,0,3.0752307510376,3.34333801269531,1825,2.76080322265625,325,2.98778533935547,2.95716857910156,1,150
207280074,39,b_0,blue,blue,Y,no_color_change,figure_change,not_first,update,correct,4,1011,3015,3075,0,3.25092575073242,3.41355895996094,25,3.09231567382812,2075,3.41355895996094,3.19911193847656,0,NaN
207280074,40,b_0,red,blue,X,color_change,figure_change,not_first,no_update,correct,16,1022,3027,2700,0,3.08526123046875,3.29377746582031,1575,2.86792755126953,2425,3.06155395507812,2.88210296630859,1,125
207280074,42,b_1,red,blue,Y,color_change,figure_change,not_first,no_update,correct,49,1059,3065,1475,0,3.24153213500977,3.57089233398438,225,2.96966552734375,850,3.10677337646484,3.27313232421875,0,NaN
207280074,43,b_1,red,blue,X,no_color_change,figure_change,not_first,no_update,correct,10,1017,3023,3075,0,3.1161442565918,3.31548309326172,100,2.854248046875,1825,3.31484985351562,3.16976928710938,0,NaN
207280074,44,b_1,red,blue,Y,no_color_change,figure_change,not_first,no_update,correct,22,1028,3034,3025,0,3.15775886535645,3.41664123535156,2450,2.87319946289062,1425,3.02356719970703,3.34029388427734,0,NaN
207280074,45,b_1,blue,blue,X,color_change,figure_change,not_first,update,correct,8,1016,3020,2450,0,3.18711253574916,3.52938079833984,1800,2.88484954833984,2125,2.92481994628906,3.11528015136719,0,NaN
207280074,46,b_1,red,blue,X,color_change,no_figure_change,not_first,no_update,correct,20,1027,3033,2850,0,3.09574661254883,3.2900390625,1000,2.85022735595703,375,3.18360137939453,3.15175628662109,0,NaN
207280074,47,b_1,red,blue,X,no_color_change,no_figure_change,not_first,no_update,correct,6,1012,3017,2900,0,3.05659172058105,3.32283782958984,1050,2.76692962646484,2300,3.17977142333984,2.95671844482422,0,NaN
207280074,48,b_1,blue,blue,Y,color_change,figure_change,not_first,update,correct,15,1022,3027,3125,0,3.15500785827637,3.41718292236328,2025,2.94777679443359,1075,3.1300048828125,3.18590545654297,0,NaN
207280074,49,b_1,red,blue,X,color_change,figure_change,not_first,no_update,correct,5,1012,3016,3025,0,3.14667579650879,3.38787841796875,1125,2.65973663330078,2475,3.29621887207031,2.67146301269531,0,NaN
207280074,51,b_2,blue,blue,X,no_color_change,no_figure_change,not_first,update,correct,113,1120,3126,2675,0,2.91069297790527,3.32781219482422,950,2.34076690673828,2275,3.19781494140625,2.41845703125,0,NaN
207280074,52,b_2,blue,blue,X,no_color_change,no_figure_change,not_first,update,correct,9,1017,3022,2225,0,2.7667040021232,3.25760650634766,1700,2.3946533203125,1850,2.62900543212891,2.95669555664062,0,NaN
207280074,53,b_2,red,blue,Y,color_change,figure_change,not_first,no_update,correct,18,1027,3032,3000,0,3.10251407623291,3.29744720458984,1300,2.82331085205078,2250,3.01225280761719,2.94245529174805,0,NaN
207280074,54,b_2,blue,blue,Y,color_change,no_figure_change,not_first,update,correct,7,1013,3019,2850,0,3.23577320098877,3.51118469238281,1825,3.08008575439453,300,3.2398681640625,3.15732574462891,0,NaN
207280074,55,b_2,blue,blue,Y,no_color_change,no_figure_change,not_first,update,correct,15,1022,3026,3150,0,3.24328079223633,3.49386596679688,2275,3.03040313720703,600,3.18306732177734,3.30007171630859,0,NaN
207280074,56,b_2,red,blue,X,color_change,figure_change,not_first,no_update,correct,5,1012,3018,2850,0,2.9417845916748,3.14475250244141,1650,2.57762908935547,2325,3.09040069580078,2.83051300048828,0,NaN
207280074,58,b_3,blue,blue,Y,no_color_change,figure_change,not_first,update,correct,7,1014,3019,2500,0,3.13171295166016,3.43368530273438,100,2.83578491210938,2375,3.32149505615234,3.04851531982422,0,NaN
207280074,59,b_3,blue,blue,Y,no_color_change,no_figure_change,not_first,update,correct,17,1025,3031,2950,0,3.02750831604004,3.29373168945312,975,2.69461822509766,2025,3.02764129638672,3.16136932373047,0,NaN
207280074,60,b_3,blue,blue,X,no_color_change,figure_change,not_first,update,correct,5,1011,3017,3150,0,3.28397796630859,3.45212554931641,1800,3.05345153808594,2275,3.30372619628906,3.06276702880859,2,175
207280074,61,b_3,blue,blue,Y,no_color_change,figure_change,not_first,update,correct,15,1023,3028,3000,0,3.22018516540527,3.41246032714844,350,2.96172332763672,825,3.30303192138672,3.19249725341797,0,NaN
207280074,62,b_3,red,blue,X,color_change,figure_change,not_first,no_update,correct,3,1009,3014,2650,0,3.12933742523193,3.31658172607422,550,2.80301666259766,1675,3.05926513671875,3.09664916992188,1,150
207280074,63,b_3,red,blue,Y,no_color_change,figure_change,not_first,no_update,correct,14,1021,3026,2500,0,3.06273574829102,3.29238128662109,1575,2.79817199707031,1750,3.03453826904297,2.99880218505859,1,125
207280074,64,b_3,blue,blue,X,color_change,figure_change,not_first,update,correct,23,1030,3035,2650,0,3.01868270874023,3.23992156982422,1500,2.74485778808594,675,2.97437286376953,3.09323883056641,1,125
207280074,65,b_3,red,blue,X,color_change,no_figure_change,not_first,no_update,correct,116,1125,3129,3175,0,3.17118537902832,3.37053680419922,2150,2.94319915771484,675,3.10186767578125,3.23143768310547,1,125
207280074,66,b_3,blue,blue,X,color_change,no_figure_change,not_first,update,correct,16,1023,3027,2650,0,3.00674980163574,3.28884124755859,2400,2.65443420410156,150,2.9346923828125,2.93006134033203,0,NaN
207280074,67,b_3,blue,blue,X,no_color_change,no_figure_change,not_first,update,correct,11,1018,3024,2525,0,2.92853874206543,3.09734344482422,1475,2.56948852539062,325,3.04306030273438,3.05883026123047,1,175
207280074,68,b_3,blue,blue,X,no_color_change,no_figure_change,not_first,update,correct,39,1045,3051,2175,0,2.90778923034668,3.47046661376953,2150,2.25753021240234,25,2.25753021240234,2.77168273925781,1,125
207280074,70,b_0,red,blue,X,color_change,figure_change,not_first,no_update,correct,7,1014,3020,1750,0,3.2040340423584,3.35401153564453,600,2.92093658447266,1525,3.16840362548828,2.94403839111328,1,200
207280074,71,b_0,red,blue,Y,no_color_change,figure_change,not_first,no_update,correct,65,1072,3077,1825,0,3.01076889038086,3.25175476074219,1075,2.71578216552734,1850,3.02149963378906,2.71578216552734,0,NaN
207280074,72,b_0,red,blue,Y,no_color_change,no_figure_change,not_first,no_update,correct,5,1011,3016,2350,0,2.943102304559,3.2034912109375,675,2.53620147705078,1550,2.83302307128906,2.70597839355469,0,NaN
207280074,74,b_1,red,blue,Y,color_change,no_figure_change,not_first,no_update,correct,22,1028,3034,2300,0,2.94115514340608,3.33216857910156,225,2.67013549804688,1800,3.10182189941406,2.94532775878906,0,NaN
207280074,75,b_1,blue,blue,X,color_change,figure_change,not_first,update,correct,30,1038,3044,2175,0,3.03453458588699,3.26097106933594,1150,2.80307006835938,1475,2.96558380126953,3.08377075195312,0,NaN
207280074,76,b_1,blue,blue,Y,no_color_change,figure_change,not_first,update,correct,20,1027,3032,2525,0,3.18092163085938,3.30888366699219,1400,3.02581024169922,50,3.04230499267578,3.15309143066406,0,NaN
207280074,78,b_2,red,blue,X,color_change,figure_change,not_first,no_update,correct,12,1019,3025,3050,0,3.0833952331543,3.30966186523438,700,2.68353271484375,2400,3.09151458740234,2.79827117919922,0,NaN
207280074,79,b_2,red,blue,Y,no_color_change,figure_change,not_first,no_update,correct,22,1028,3034,2825,0,3.08342727661133,3.34222412109375,525,2.75215148925781,2450,3.14447021484375,2.96129608154297,0,NaN
207280074,80,b_2,red,blue,X,no_color_change,figure_change,not_first,no_update,correct,10,1018,3024,2575,0,2.99911521911621,3.19894409179688,1250,2.78134918212891,1800,3.10992431640625,2.92979431152344,1,150
207280074,81,b_2,red,blue,Y,no_color_change,figure_change,not_first,no_update,correct,21,1029,3033,1750,0,2.84225790841239,3.19852447509766,350,2.45294189453125,1700,2.78292083740234,2.58175659179688,1,125
207280074,82,b_2,red,blue,Y,no_color_change,no_figure_change,not_first,no_update,correct,22,1029,3034,2525,0,3.06264099121094,3.40400695800781,2000,2.59947204589844,175,2.60586547851562,3.12541961669922,0,NaN
207280074,83,b_2,red,blue,Y,no_color_change,no_figure_change,not_first,no_update,correct,21,1028,3034,2750,0,2.93717849731445,3.20342254638672,875,2.61392974853516,1425,3.10208892822266,3.087890625,0,NaN
207280074,84,b_2,blue,blue,Y,color_change,no_figure_change,not_first,update,correct,43,1050,0,375,0,2.97308349609375,3.24767303466797,300,2.70476531982422,175,3.12617492675781,3.14817047119141,0,NaN
207280074,85,b_2,blue,blue,X,no_color_change,figure_change,not_first,update,correct,885,1891,3896,2000,0,3.2553774986738,3.39988708496094,625,3.07377624511719,1200,3.15705871582031,3.18625640869141,0,NaN
207280074,86,b_2,blue,blue,Y,no_color_change,figure_change,not_first,update,correct,4,1011,3017,2925,0,3.1778783416748,3.37853240966797,1100,2.86616516113281,1675,3.08424377441406,3.11943054199219,0,NaN
207280074,87,b_2,blue,blue,X,no_color_change,figure_change,not_first,update,correct,14,1022,3026,2950,0,3.25754470054549,3.49056243896484,2050,2.98690032958984,150,3.00994873046875,3.19802093505859,0,NaN
207280074,88,b_2,blue,blue,Y,no_color_change,figure_change,not_first,update,correct,176,1182,3187,2700,0,3.12253723144531,3.36558532714844,25,2.88707733154297,2350,3.36558532714844,3.0771484375,0,NaN
207280074,90,b_3,blue,blue,X,no_color_change,figure_change,not_first,update,correct,17,1025,3030,2750,0,3.04626487731934,3.20694732666016,1700,2.82911682128906,1750,3.01706695556641,2.93802642822266,0,NaN
207280074,91,b_3,red,blue,X,color_change,no_figure_change,not_first,no_update,correct,5,1012,3018,1700,0,2.91217041015625,3.21773529052734,1375,2.55811309814453,925,3.02048492431641,2.89324951171875,0,NaN
207280074,92,b_3,red,blue,Y,no_color_change,figure_change,not_first,no_update,correct,15,1021,0,2325,0,3.15248714980259,3.44346618652344,1900,2.79222869873047,25,2.79222869873047,3.2354736328125,0,NaN
207280074,93,b_3,red,blue,Y,no_color_change,no_figure_change,not_first,no_update,correct,525,1533,3538,2300,0,3.4684188676917,3.80113220214844,850,2.93109130859375,2125,3.20024871826172,3.09918975830078,0,NaN
207280074,94,b_3,blue,blue,X,color_change,figure_change,not_first,update,correct,21,1030,3033,3200,0,3.32846496582031,3.47754669189453,2050,3.22151184082031,1000,3.25142669677734,3.33904266357422,0,NaN
207280074,95,b_3,blue,blue,Y,no_color_change,figure_change,not_first,update,correct,13,1021,3025,2525,0,3.38731311798096,3.50553131103516,1450,3.17115783691406,425,3.39619445800781,3.27781677246094,1,175
207280074,96,b_3,red,blue,Y,color_change,no_figure_change,not_first,no_update,correct,22,1029,3033,1975,0,3.27187356948853,3.49655151367188,225,3.01280212402344,1725,3.32400512695312,3.1435546875,0,NaN
207280074,97,b_3,red,blue,Y,no_color_change,no_figure_change,not_first,no_update,correct,11,1019,3024,2550,0,3.08503288269043,3.35639953613281,2500,2.84443664550781,1775,3.18976593017578,3.35639953613281,0,NaN
207280074,98,b_3,blue,blue,X,color_change,figure_change,not_first,update,correct,21,1028,3034,2375,0,3.15297587712606,3.35955047607422,1500,2.93222808837891,1000,3.28215789794922,3.11367034912109,0,NaN
207280074,100,b_0,blue,blue,X,no_color_change,no_figure_change,not_first,update,correct,16,1024,3028,2725,0,3.13084701538086,3.47601318359375,125,2.86426544189453,2400,3.45243835449219,2.99228668212891,0,NaN
207280074,101,b_0,red,blue,Y,color_change,figure_change,not_first,no_update,correct,15,1023,3027,2325,0,2.97893094001932,3.2650146484375,300,2.69528961181641,1800,3.08835601806641,2.90997314453125,0,NaN
207280074,102,b_0,red,blue,Y,no_color_change,no_figure_change,not_first,no_update,correct,5,1012,3018,2725,0,3.18403373718262,3.41820526123047,1450,2.89292144775391,1950,3.18796539306641,3.20450592041016,1,125
207280074,103,b_0,blue,blue,Y,color_change,no_figure_change,not_first,update,correct,16,1022,3027,2975,0,3.23238952636719,3.33197784423828,1625,3.07038879394531,650,3.24491119384766,3.31159973144531,2,162.5
207280074,105,b_1,blue,blue,Y,no_color_change,no_figure_change,not_first,update,correct,24,1031,3038,2425,0,3.12169198891551,3.327880859375,1600,2.89089965820312,775,2.98260498046875,3.23149871826172,0,NaN
207280074,106,b_1,red,blue,Y,color_change,no_figure_change,not_first,no_update,correct,37,1044,3050,2525,0,3.32459030151367,3.45928955078125,775,3.13268280029297,2400,3.31800079345703,3.26443481445312,0,NaN
207280074,107,b_1,blue,blue,X,color_change,figure_change,not_first,update,correct,22,1029,3034,2700,0,3.2657975769043,3.53299713134766,1675,3.00177001953125,2150,3.19881439208984,3.04881286621094,0,NaN
207280074,108,b_1,red,blue,Y,color_change,figure_change,not_first,no_update,correct,11,1017,3023,2200,0,3.23399959911,3.44632720947266,1025,2.86157989501953,1925,3.21234130859375,2.98706817626953,1,150
207280074,109,b_1,red,blue,X,no_color_change,figure_change,not_first,no_update,correct,22,1028,3033,2675,0,3.12849617004395,3.44091796875,900,2.84447479248047,350,2.96218109130859,3.35350799560547,0,NaN
207280074,110,b_1,blue,blue,Y,color_change,figure_change,not_first,update,correct,9,1015,3021,2725,0,3.25689147949219,3.5205078125,1725,3.08155822753906,875,3.27050018310547,3.46278381347656,0,NaN
207280074,111,b_1,red,blue,X,color_change,figure_change,not_first,no_update,correct,56,1062,3067,2350,0,3.30042380474983,3.60684204101562,100,3.06493377685547,1850,3.45211791992188,3.06932067871094,0,NaN
207280074,112,b_1,red,blue,Y,no_color_change,figure_change,not_first,no_update,correct,22,1030,3035,2975,0,3.15168716430664,3.59157562255859,2250,2.78038024902344,1150,3.0703125,3.51016998291016,0,NaN
207280074,113,b_1,red,blue,X,no_color_change,figure_change,not_first,no_update,correct,15,1022,3027,2650,0,3.11384262084961,3.46373748779297,2500,2.70703125,975,3.4149169921875,3.46373748779297,0,NaN
207280074,114,b_1,red,blue,X,no_color_change,no_figure_change,not_first,no_update,correct,22,1029,3034,2875,0,3.15867347717285,3.39002227783203,25,2.92794036865234,1100,3.39002227783203,3.14057159423828,0,NaN
207280074,115,b_1,blue,blue,Y,color_change,figure_change,not_first,update,correct,63,1071,3076,2750,0,3.0533048248291,3.5047607421875,1850,2.56375122070312,900,3.32384490966797,3.38533782958984,0,NaN
207280074,116,b_1,red,blue,X,color_change,figure_change,not_first,no_update,correct,3,1011,3016,2750,0,2.98589667495416,3.39104461669922,50,2.59642028808594,1975,3.39104461669922,2.94319915771484,0,NaN
207280074,117,b_1,red,blue,Y,no_color_change,figure_change,not_first,no_update,correct,15,1022,3028,2475,0,2.85149560793482,3.21604919433594,425,2.43256378173828,1200,3.03598022460938,2.61505126953125,0,NaN
207280074,118,b_1,red,blue,Y,no_color_change,no_figure_change,not_first,no_update,correct,30,1037,3043,2100,0,2.81636558981503,3.37160491943359,2125,2.35679626464844,1600,2.70520782470703,3.37160491943359,0,NaN
207280074,120,b_2,blue,blue,X,no_color_change,figure_change,not_first,update,correct,22,1029,3034,2275,0,2.89549628548,3.15995788574219,1400,2.43523406982422,2250,3.07022857666016,2.80522155761719,0,NaN
207280074,121,b_2,blue,blue,Y,no_color_change,figure_change,not_first,update,correct,13,1021,3026,3025,0,3.0709846496582,3.47061920166016,2100,2.61768341064453,450,2.713623046875,3.34816741943359,0,NaN
207280074,122,b_2,red,blue,X,color_change,figure_change,not_first,no_update,correct,21,1028,3034,3100,0,3.15470191955566,3.4200439453125,950,2.66300201416016,2300,3.25777435302734,2.82830810546875,1,175
207280074,123,b_2,blue,blue,X,color_change,no_figure_change,not_first,update,correct,12,1018,3024,2825,0,2.94655891418457,3.28195953369141,1925,2.62400054931641,1225,3.00637817382812,2.89665222167969,0,NaN
207280074,124,b_2,red,blue,Y,color_change,figure_change,not_first,no_update,correct,88,1095,3099,3100,0,3.03778266906738,3.22906494140625,325,2.80515289306641,2500,3.08339691162109,2.80515289306641,1,225
207280074,125,b_2,red,blue,X,no_color_change,figure_change,not_first,no_update,correct,10,1016,3022,2975,0,2.95845664978027,3.14430236816406,625,2.61855316162109,2325,3.00133514404297,2.72223663330078,1,250
207280074,126,b_2,blue,blue,Y,color_change,figure_change,not_first,update,correct,25,1034,3038,3150,0,2.92136329650879,3.13607788085938,50,2.73249816894531,300,2.8621826171875,2.92060852050781,2,150
207280074,127,b_2,red,blue,X,color_change,figure_change,not_first,no_update,correct,7,1014,3021,2825,0,2.97683334350586,3.17103576660156,2100,2.72877502441406,1475,2.89167022705078,2.97885131835938,1,150
207280074,129,b_3,blue,blue,Y,no_color_change,no_figure_change,not_first,update,correct,156,1163,3170,3025,0,2.98800762176514,3.19466400146484,1500,2.68070983886719,750,3.08800506591797,2.77958679199219,1,150
207280074,130,b_3,red,blue,Y,color_change,no_figure_change,not_first,no_update,correct,10,1017,3021,3325,0,3.09449035644531,3.22917938232422,1975,2.88400268554688,825,3.09243011474609,3.10941314697266,0,NaN
207280074,131,b_3,blue,blue,X,color_change,figure_change,not_first,update,correct,22,1030,3036,3100,0,3.12634330749512,3.40352630615234,475,2.85387420654297,575,2.95925903320312,2.87178802490234,0,NaN
207280074,132,b_3,red,blue,Y,color_change,figure_change,not_first,no_update,correct,8,1017,3023,3250,0,3.23464778900146,3.40366363525391,1350,3.08751678466797,1700,3.21250915527344,3.24052429199219,1,150
207280074,133,b_3,red,blue,X,no_color_change,figure_change,not_first,no_update,correct,19,1027,3031,3375,0,3.19505271911621,3.37001037597656,1175,2.97511291503906,2475,3.14985656738281,3.00654602050781,0,NaN
207280074,135,b_0,blue,red,X,color_change,no_figure_change,not_first,no_update,correct,23,528,1530,2325,0,3.09530221262286,3.42581176757812,2275,2.72891235351562,1050,3.00676727294922,3.3779296875,1,200
207280074,136,b_0,red,red,X,color_change,no_figure_change,not_first,update,correct,12,515,1518,2850,0,3.32576583862305,3.45093536376953,800,3.12505340576172,1925,3.39813995361328,3.12716674804688,1,175
207280074,137,b_0,red,red,Y,no_color_change,figure_change,not_first,update,correct,68,572,1575,3025,0,3.27158706665039,3.55942535400391,2075,2.96409606933594,850,3.22238922119141,3.41382598876953,0,NaN
207280074,138,b_0,blue,red,X,color_change,figure_change,not_first,no_update,correct,6,509,1511,3325,0,3.19348449707031,3.42909240722656,25,2.87551879882812,1275,3.42909240722656,3.29457855224609,0,NaN
207280074,139,b_0,red,red,Y,color_change,figure_change,not_first,update,correct,12,515,1518,1900,0,2.95292376233386,3.12443542480469,575,2.75536346435547,25,2.75536346435547,2.83486175537109,0,NaN
207280074,141,b_1,blue,red,Y,color_change,figure_change,not_first,no_update,correct,6,510,1512,2325,0,2.99272102437994,3.27635192871094,1100,2.62409973144531,275,2.95453643798828,3.07301330566406,0,NaN
207280074,142,b_1,blue,red,X,no_color_change,figure_change,not_first,no_update,correct,12,515,1518,3125,0,3.10155604044596,3.25450897216797,1600,2.79844665527344,2325,3.07492065429688,3.03088124593099,1,225
207280074,143,b_1,blue,red,Y,no_color_change,figure_change,not_first,no_update,correct,5,508,1511,2600,0,3.2460795211792,3.44111633300781,1050,2.85855865478516,2300,3.31974029541016,2.86433410644531,1,150
207280074,144,b_1,blue,red,X,no_color_change,figure_change,not_first,no_update,correct,61,564,1567,2350,0,3.06078824495014,3.25467681884766,900,2.67787170410156,100,2.79224395751953,3.10468292236328,1,250
207280074,145,b_1,red,red,X,color_change,no_figure_change,not_first,update,correct,6,510,1513,3225,0,3.06124366760254,3.32648468017578,1425,2.71944427490234,375,3.07975006103516,2.9554443359375,1,125
207280074,146,b_1,red,red,X,no_color_change,no_figure_change,not_first,update,correct,10,513,0,1925,0,2.92869528237875,3.06599426269531,550,2.62706756591797,150,3.009521484375,2.84864044189453,0,NaN
207280074,147,b_1,blue,red,Y,color_change,figure_change,not_first,no_update,correct,691,1194,2197,2850,0,3.04181009409379,3.34149932861328,1725,2.6668701171875,1300,2.84552001953125,3.18149566650391,0,NaN
207280074,148,b_1,red,red,Y,color_change,no_figure_change,not_first,update,correct,8,511,1513,2450,0,3.08280528675426,3.37374114990234,650,2.70763397216797,1400,3.22499847412109,2.72030639648438,0,NaN
207280074,149,b_1,blue,red,Y,color_change,no_figure_change,not_first,no_update,correct,2,505,0,975,0,2.84879029102814,3.13935089111328,900,2.54541015625,750,2.92031860351562,2.59872436523438,1,150
207280074,150,b_1,blue,red,Y,no_color_change,no_figure_change,not_first,no_update,correct,16,520,1523,1525,0,3.118774660172,3.45338439941406,575,2.71671295166016,150,2.94024658203125,2.75416564941406,1,125
207280074,152,b_2,red,red,X,no_color_change,no_figure_change,not_first,update,correct,5,508,1511,3075,0,3.06109878540039,3.27968597412109,1300,2.75440979003906,1975,3.00034332275391,2.977294921875,0,NaN
207280074,153,b_2,blue,red,Y,color_change,figure_change,not_first,no_update,correct,11,515,1518,1825,0,3.05265808105469,3.27238464355469,1775,2.75829315185547,350,2.83420562744141,3.27238464355469,1,175
207280074,154,b_2,blue,red,Y,no_color_change,no_figure_change,not_first,no_update,correct,3,506,1509,2775,0,3.33521354675293,3.62042236328125,525,2.98032379150391,2075,3.28643798828125,3.35974884033203,0,NaN
207280074,155,b_2,blue,red,X,no_color_change,figure_change,not_first,no_update,correct,11,515,1517,3100,0,3.10933011372884,3.41019439697266,50,2.9019775390625,2250,3.37272644042969,3.17702992757161,0,NaN
207280074,156,b_2,red,red,X,color_change,no_figure_change,not_first,update,correct,4,508,1511,2325,0,3.12281200449954,3.37740325927734,825,2.89608764648438,1500,3.13389587402344,3.0546875,0,NaN
207280074,157,b_2,red,red,X,no_color_change,no_figure_change,not_first,update,correct,59,563,1565,2250,0,2.94686470450936,3.29383087158203,300,2.51483917236328,1825,3.03595733642578,3.01496124267578,1,125
207280074,158,b_2,red,red,Y,no_color_change,figure_change,not_first,update,correct,3,507,1509,2400,0,3.02277004595884,3.35118103027344,625,2.68441772460938,925,2.97088623046875,3.12637329101562,1,225
207280074,159,b_2,red,red,X,no_color_change,figure_change,not_first,update,correct,8,511,1514,2750,0,3.07813690185547,3.39500427246094,1175,2.71034240722656,850,3.10676574707031,2.89112091064453,0,NaN
207280074,160,b_2,red,red,Y,no_color_change,figure_change,not_first,update,correct,70,573,1575,1925,0,2.82958241512901,3.09516143798828,1050,2.44979095458984,700,2.47219085693359,2.50910186767578,0,NaN
207280074,161,b_2,red,red,Y,no_color_change,no_figure_change,not_first,update,correct,43,546,1549,2675,0,3.22328460693359,3.63408660888672,1175,2.68425750732422,200,3.10208892822266,3.30765533447266,1,175
207280074,163,b_3,blue,red,Y,color_change,no_figure_change,not_first,no_update,correct,7,510,0,2375,0,3.11621398925781,3.26890563964844,900,2.85567474365234,2025,3.10637664794922,3.07743835449219,0,NaN
207280074,164,b_3,red,red,X,color_change,figure_change,not_first,update,correct,344,848,82,1250,0,3.20879455566406,3.48274993896484,250,2.90151214599609,900,3.10166168212891,3.20573425292969,0,NaN
207280074,165,b_3,red,red,X,no_color_change,no_figure_change,not_first,update,correct,913,1416,2418,2950,0,3.41471969604492,3.94789123535156,125,2.95775604248047,950,3.15188598632812,3.32968139648438,0,NaN
207280074,166,b_3,red,red,Y,no_color_change,figure_change,not_first,update,correct,11,514,1516,2850,0,3.20645523071289,3.41698455810547,1950,2.91649627685547,975,3.28730010986328,3.18222045898438,0,NaN
207280074,167,b_3,blue,red,X,color_change,figure_change,not_first,no_update,correct,11,514,1518,2525,0,2.92406272888184,3.49636077880859,50,2.4044189453125,2075,3.36623382568359,2.91788482666016,0,NaN
207280074,168,b_3,red,red,X,color_change,no_figure_change,not_first,update,correct,5,508,1511,3175,0,3.16803833007812,3.37841796875,1925,2.87926483154297,2325,2.95308685302734,3.06699371337891,0,NaN
207280074,169,b_3,red,red,X,no_color_change,no_figure_change,not_first,update,correct,11,514,1516,3000,0,2.94929920196533,3.29830932617188,75,2.52539825439453,1100,3.27429962158203,3.02287292480469,0,NaN
207280074,170,b_3,red,red,X,no_color_change,no_figure_change,not_first,update,correct,6,510,1513,2625,0,2.99232795715332,3.25816345214844,1775,2.64920043945312,2425,2.81679534912109,2.69761657714844,0,NaN
207280074,171,b_3,blue,red,Y,color_change,figure_change,not_first,no_update,correct,35,538,1540,2500,0,2.99287445068359,3.21923828125,1050,2.6893310546875,250,2.76467132568359,2.97216796875,1,125
207280074,172,b_3,red,red,X,color_change,figure_change,not_first,update,correct,4,507,1509,3000,0,3.045390625,3.2691650390625,2400,2.69232940673828,2450,2.98056793212891,2.74983978271484,1,200
207280074,173,b_3,blue,red,Y,color_change,figure_change,not_first,no_update,correct,44,548,1550,2200,0,2.85064628686798,3.19184112548828,2200,2.47052764892578,1625,2.64133453369141,3.10642242431641,0,NaN
207280074,174,b_3,red,red,X,color_change,figure_change,not_first,update,correct,2,506,1509,1950,0,3.27714422684682,3.48671722412109,1650,3.05751037597656,1575,3.08325958251953,3.40023803710938,0,NaN
207280074,175,b_3,red,red,Y,no_color_change,figure_change,not_first,update,correct,7,512,1514,2750,0,3.05808372497559,3.43380737304688,25,2.71247100830078,675,3.43380737304688,3.04110717773438,1,175
207280074,176,b_3,blue,red,X,color_change,figure_change,not_first,no_update,correct,1,504,1508,2750,0,2.89254104614258,3.15721893310547,175,2.50482940673828,775,3.07546997070312,2.73587036132812,1,125
207280074,178,b_0,blue,red,Y,color_change,figure_change,not_first,no_update,correct,23,1031,3036,2250,0,3.25698550716861,3.43492889404297,375,2.92497253417969,1450,3.40321350097656,3.32316589355469,0,NaN
207280074,179,b_0,red,red,Y,color_change,no_figure_change,not_first,update,correct,12,1019,3025,1625,0,3.25061891995944,3.46308898925781,1100,2.92740631103516,425,3.34823608398438,3.00078582763672,0,NaN
207280074,180,b_0,red,red,X,no_color_change,figure_change,not_first,update,correct,21,1029,3034,1975,0,3.12599298018443,3.31365203857422,1125,2.85387420654297,1900,2.90278625488281,2.93106079101562,0,NaN
207280074,181,b_0,red,red,X,no_color_change,no_figure_change,not_first,update,correct,21,1028,3034,2425,0,3.00663671688158,3.27297210693359,900,2.64325714111328,2025,2.93573760986328,2.88076019287109,0,NaN
207280074,183,b_1,blue,red,Y,color_change,figure_change,not_first,no_update,correct,9,1017,3023,2250,0,2.9736947801378,3.18388366699219,1550,2.70049285888672,900,3.12409210205078,2.95758056640625,0,NaN
207280074,184,b_1,blue,red,Y,no_color_change,no_figure_change,not_first,no_update,correct,23,1029,3036,1175,0,2.83491272621966,3.01881408691406,150,2.61623382568359,750,2.92988586425781,2.73374176025391,0,NaN
207280074,185,b_1,blue,red,X,no_color_change,figure_change,not_first,no_update,correct,309,1317,3323,1500,0,3.00873692830404,3.20537567138672,950,2.66922760009766,1400,3.02189636230469,2.71381378173828,1,225
207280074,186,b_1,blue,red,Y,no_color_change,figure_change,not_first,no_update,correct,22,1029,3034,1950,0,3.06770141215264,3.34954833984375,1275,2.72635650634766,100,2.84099578857422,3.06499481201172,0,NaN
207280074,187,b_1,blue,red,X,no_color_change,figure_change,not_first,no_update,correct,7,1014,3019,1750,0,3.01392665379484,3.34578704833984,1700,2.53482818603516,400,3.11063385009766,3.32366943359375,0,NaN
207280074,188,b_1,red,red,X,color_change,no_figure_change,not_first,update,correct,18,1025,3030,2100,0,3.23654856962316,3.45979309082031,600,3.08259582519531,850,3.294677734375,3.15908813476562,0,NaN
207280074,190,b_2,blue,red,X,color_change,no_figure_change,not_first,no_update,correct,17,1023,3029,2175,0,3.07792446830056,3.24697113037109,1225,2.88246917724609,1950,2.98477172851562,2.96890258789062,0,NaN
207280074,191,b_2,blue,red,X,no_color_change,no_figure_change,not_first,no_update,correct,5,1012,3018,1050,0,2.75494970277298,3.07400512695312,400,2.45541381835938,350,2.83406066894531,3.04405212402344,0,NaN
207280074,192,b_2,blue,red,X,no_color_change,no_figure_change,not_first,no_update,correct,14,1021,3027,2200,0,3.02109977636444,3.23687744140625,2200,2.73233032226562,600,2.97939300537109,3.1763916015625,0,NaN
207280074,193,b_2,red,red,X,color_change,no_figure_change,not_first,update,correct,4,1010,3016,2225,0,3.08772595009107,3.25218200683594,1575,2.80834197998047,1925,3.20017242431641,3.16315460205078,0,NaN
207280074,194,b_2,blue,red,X,color_change,no_figure_change,not_first,no_update,correct,22,1029,3036,2600,0,3.28818412780762,3.49977874755859,1200,3.07192993164062,2000,3.22902679443359,3.20869445800781,0,NaN
207280074,195,b_2,blue,red,Y,no_color_change,figure_change,not_first,no_update,correct,25,1032,3038,1725,0,3.24930507114955,3.43133544921875,900,2.94287872314453,1625,3.22606658935547,2.95529174804688,0,NaN
207280074,197,b_3,blue,red,Y,color_change,figure_change,not_first,no_update,correct,26,1034,3039,2700,0,3.14396011352539,3.41303253173828,2075,2.826171875,2500,3.08779144287109,2.826171875,0,NaN
207280074,198,b_3,blue,red,X,no_color_change,figure_change,not_first,no_update,correct,15,1021,3026,2525,0,3.07835311889648,3.30123901367188,1325,2.80966949462891,550,3.0606689453125,3.09963226318359,0,NaN
207280074,199,b_3,red,red,Y,color_change,figure_change,not_first,update,correct,22,1030,3034,1875,0,3.12911275227865,3.49803161621094,1675,2.79355621337891,725,3.07738494873047,3.15726470947266,0,NaN
207280074,200,b_3,blue,red,X,color_change,figure_change,not_first,no_update,correct,113,1120,3126,2225,0,3.1112805484386,3.35764312744141,1675,2.72651672363281,2225,3.21224212646484,2.72651672363281,0,NaN
207280074,201,b_3,blue,red,X,no_color_change,no_figure_change,not_first,no_update,correct,22,1030,3036,2525,0,3.11076925258444,3.27898406982422,1125,2.80480194091797,2125,2.83504486083984,3.23557281494141,0,NaN
207280074,202,b_3,blue,red,X,no_color_change,no_figure_change,not_first,no_update,correct,12,1018,3025,1875,0,2.98649749755859,3.18584442138672,25,2.79940795898438,600,3.18584442138672,2.88685607910156,1,125
207280074,203,b_3,red,red,Y,color_change,figure_change,not_first,update,correct,39,1046,3051,2300,0,3.03376023665718,3.30789947509766,1075,2.77079010009766,1700,2.94875335693359,3.25294494628906,0,NaN
207280074,204,b_3,red,red,X,no_color_change,figure_change,not_first,update,correct,22,1029,3033,2475,0,3.37717638112078,3.66250610351562,1825,3.05853271484375,2450,3.28374481201172,3.07718658447266,1,225
207280074,205,b_3,blue,red,X,color_change,no_figure_change,not_first,no_update,correct,132,1139,3145,1975,0,3.13624988024748,3.34150695800781,1375,2.92562103271484,625,3.02713775634766,3.07546997070312,0,NaN
207280074,206,b_3,red,red,X,color_change,no_figure_change,not_first,update,correct,90,1098,3103,2150,0,3.0680058945057,3.24721527099609,2100,2.89032745361328,1600,3.00660705566406,3.03166198730469,0,NaN
207280074,207,b_3,red,red,Y,no_color_change,figure_change,not_first,update,correct,20,1027,3034,2225,0,3.11212683783637,3.29646301269531,625,2.86251068115234,775,3.02388763427734,2.90401458740234,1,175
207280074,208,b_3,red,red,X,no_color_change,figure_change,not_first,update,correct,6,1013,3018,2850,0,3.16985000610352,3.35857391357422,1850,2.99976348876953,200,3.02017974853516,3.14409637451172,1,175
207280074,209,b_3,red,red,Y,no_color_change,figure_change,not_first,update,correct,15,1023,3030,2900,0,3.14239593505859,3.29032897949219,350,2.727294921875,2350,3.23426055908203,2.74264526367188,1,125
207280074,210,b_3,red,red,Y,no_color_change,no_figure_change,not_first,update,correct,5,1012,3017,2275,0,3.07893039869226,3.35030364990234,1525,2.76998138427734,2125,3.03444671630859,2.83733367919922,1,150
207601006,2,b_0,blue,blue,Y,no_color_change,no_figure_change,not_first,update,correct,17,1024,3030,2325,0,2.91978044407342,3.21251678466797,350,2.63907623291016,1950,2.85306549072266,2.73665618896484,1,125
207601006,3,b_0,red,blue,X,color_change,figure_change,not_first,no_update,correct,61,1070,3074,1025,0,2.86512160882717,3.18179321289062,400,2.53447723388672,800,2.71229553222656,3.08363342285156,0,NaN
207601006,4,b_0,red,blue,X,no_color_change,no_figure_change,not_first,no_update,correct,132,1138,3144,850,0,2.72989968692555,3.19519805908203,675,2.13638305664062,750,2.55461120605469,2.97283172607422,0,NaN
207601006,5,b_0,blue,blue,X,color_change,no_figure_change,not_first,update,correct,28,1035,3041,1050,0,2.42780485607329,2.74547576904297,950,2.19951629638672,450,2.27043151855469,2.50449371337891,1,275
207601006,6,b_0,red,blue,Y,color_change,figure_change,not_first,no_update,correct,18,1025,3031,3275,0,2.46685704997942,2.94957733154297,2150,2.01139068603516,525,2.93616485595703,2.41215515136719,0,NaN
207601006,7,b_0,red,blue,X,no_color_change,figure_change,not_first,no_update,correct,5,1013,3017,3000,0,2.54649427825329,2.79783630371094,1750,2.34337615966797,2425,2.64567565917969,2.65099334716797,0,NaN
207601006,8,b_0,blue,blue,X,color_change,no_figure_change,not_first,update,correct,22,1028,3035,2800,0,2.61468464720483,2.91060638427734,1400,2.36885070800781,2425,2.53943634033203,2.48326873779297,1,150
207601006,9,b_0,red,blue,Y,color_change,figure_change,not_first,no_update,correct,5,1011,3017,2575,0,2.5962584252451,3.18807983398438,2500,2.16453552246094,500,2.7684326171875,2.44950866699219,1,225
207601006,10,b_0,blue,blue,Y,color_change,no_figure_change,not_first,update,correct,15,1022,3026,2175,0,2.67678052728826,3.23764038085938,1575,2.2005615234375,500,2.5633544921875,2.57901763916016,0,NaN
207601006,11,b_0,blue,blue,Y,no_color_change,no_figure_change,not_first,update,correct,3,1011,3015,1850,0,2.64098256429036,3.16184234619141,1025,2.21656036376953,1600,2.75358581542969,2.77191162109375,0,NaN
207601006,12,b_0,red,blue,X,color_change,figure_change,not_first,no_update,correct,14,1021,3026,1625,0,2.82330721341647,3.61331939697266,500,2.19102478027344,1475,3.11863708496094,2.60535430908203,0,NaN
207601006,13,b_0,blue,blue,X,color_change,no_figure_change,not_first,update,correct,22,1030,3036,2400,0,2.60683354643202,3.23844146728516,225,2.17635345458984,400,2.77588653564453,2.42751312255859,0,NaN
207601006,15,b_1,red,blue,Y,color_change,no_figure_change,not_first,no_update,correct,17,1023,3028,550,0,2.57820476185192,2.81867218017578,200,2.25751495361328,400,2.72476196289062,2.64077758789062,0,NaN
207601006,16,b_1,red,blue,X,no_color_change,figure_change,not_first,no_update,correct,23,1032,3037,1600,0,2.50321972186749,2.99068450927734,150,2.1339111328125,800,2.22177124023438,2.27532958984375,0,NaN
207601006,17,b_1,blue,blue,X,color_change,no_figure_change,not_first,update,correct,4,1010,3017,2550,0,2.62588964724073,3.02852630615234,625,2.27838897705078,1125,2.71066284179688,2.42743682861328,0,NaN
207601006,18,b_1,red,blue,X,color_change,no_figure_change,not_first,no_update,correct,15,1023,3029,2325,0,2.63402446623771,3.13162994384766,1375,2.21177673339844,1050,2.92825317382812,2.77595520019531,0,NaN
207601006,19,b_1,blue,blue,Y,color_change,figure_change,not_first,update,correct,20,1028,3032,1950,0,2.62001491498344,2.99480438232422,1675,2.28907775878906,1825,2.84708404541016,2.90355682373047,0,NaN
207601006,20,b_1,blue,blue,Y,no_color_change,no_figure_change,not_first,update,correct,13,1020,3026,2400,0,2.63695899645487,3.29183197021484,350,2.29254913330078,2000,2.97981262207031,2.76869964599609,1,225
207601006,21,b_1,red,blue,Y,color_change,no_figure_change,not_first,no_update,correct,57,1065,3071,1925,0,2.64397569136186,3.33868408203125,100,2.14089965820312,1550,3.08445739746094,2.89920806884766,0,NaN
207601006,22,b_1,red,blue,Y,no_color_change,no_figure_change,not_first,no_update,correct,22,1028,3033,1250,0,2.55195137023926,2.80651092529297,1075,2.28431701660156,300,2.69253540039062,2.53742218017578,1,150
207601006,23,b_1,red,blue,Y,no_color_change,no_figure_change,not_first,no_update,correct,23,1029,3035,2025,0,2.56908193448695,3.20409393310547,450,2.17022705078125,1350,2.64725494384766,2.52645874023438,0,NaN
207601006,24,b_1,red,blue,Y,no_color_change,no_figure_change,not_first,no_update,correct,10,1017,3022,2850,0,2.5933022592582,2.84291076660156,1750,2.28730010986328,275,2.56749725341797,2.64313507080078,1,200
207601006,25,b_1,red,blue,X,no_color_change,figure_change,not_first,no_update,correct,21,1029,3033,3325,0,2.61833352980271,2.98464965820312,2425,2.3245849609375,1475,2.78382873535156,2.7139638264974,1,250
207601006,26,b_1,blue,blue,X,color_change,no_figure_change,not_first,update,correct,8,1015,3020,2975,0,2.61188192928539,3.16725921630859,75,2.31281280517578,2450,2.57182312011719,2.77096557617188,0,NaN
207601006,27,b_1,red,blue,Y,color_change,figure_change,not_first,no_update,correct,19,1026,3032,2900,0,2.58757755803127,3.19232940673828,950,2.13606262207031,2125,2.26734924316406,2.66303253173828,0,NaN
207601006,28,b_1,red,blue,Y,no_color_change,no_figure_change,not_first,no_update,correct,6,1015,3020,2925,0,2.54473704917758,2.97173309326172,300,2.27696228027344,425,2.30045318603516,2.57578277587891,1,200
207601006,29,b_1,red,blue,Y,no_color_change,no_figure_change,not_first,no_update,correct,90,1096,3102,3250,0,2.59770277434704,2.93680572509766,1225,2.39157104492188,2525,2.52217864990234,2.40032196044922,0,NaN
207601006,30,b_1,red,blue,Y,no_color_change,no_figure_change,not_first,no_update,correct,3,1011,3015,2850,0,2.55144500732422,3.13011932373047,75,2.21977233886719,2100,2.39348602294922,2.34746551513672,0,NaN
207601006,31,b_1,red,blue,X,no_color_change,figure_change,not_first,no_update,correct,16,1023,3028,3275,0,2.67501068115234,3.25753021240234,250,2.19883728027344,500,2.79744720458984,2.57510375976562,0,NaN
207601006,32,b_1,blue,blue,Y,color_change,figure_change,not_first,update,correct,3,1009,3014,2800,0,2.64309595145431,3.34199523925781,25,2.21796417236328,650,3.34199523925781,2.93215179443359,0,NaN
207601006,33,b_1,red,blue,X,color_change,figure_change,not_first,no_update,correct,14,1022,3027,2675,0,2.65599564944997,3.18585968017578,1025,2.19969177246094,200,2.44772338867188,2.46064758300781,0,NaN
207601006,35,b_2,blue,blue,X,no_color_change,figure_change,not_first,update,correct,14,1021,3027,3275,0,2.51496094348384,2.77072906494141,1475,2.29384613037109,850,2.57759857177734,2.58411407470703,0,NaN
207601006,36,b_2,red,blue,X,color_change,no_figure_change,not_first,no_update,correct,48,1055,3061,2125,0,2.47091522216797,3.00634002685547,300,2.08072662353516,1625,2.30478668212891,2.28554534912109,0,NaN
207601006,37,b_2,blue,blue,X,color_change,no_figure_change,not_first,update,correct,20,1026,3032,3375,0,2.53568701650582,2.91072845458984,575,2.22794342041016,1175,2.27677917480469,2.75447082519531,0,NaN
207601006,38,b_2,red,blue,Y,color_change,figure_change,not_first,no_update,correct,22,1029,3034,3450,0,2.59198529112573,2.84348297119141,1975,2.39517211914062,2275,2.69976806640625,2.41609191894531,1,225
207601006,39,b_2,red,blue,X,no_color_change,figure_change,not_first,no_update,correct,10,1017,3021,2825,0,2.46871095545152,2.81845092773438,175,2.23844146728516,1650,2.42208099365234,2.34861755371094,1,175
207601006,40,b_2,red,blue,Y,no_color_change,figure_change,not_first,no_update,correct,23,1029,3034,2950,0,2.58343079510857,3.07349395751953,1400,2.16635894775391,2475,2.76234436035156,2.85329437255859,0,NaN
207601006,42,b_3,blue,blue,X,no_color_change,figure_change,not_first,update,correct,15,1024,3029,2325,0,2.59349527666646,2.97167205810547,1925,2.24046325683594,2225,2.5589599609375,2.50453186035156,1,125
207601006,43,b_3,blue,blue,Y,no_color_change,figure_change,not_first,update,correct,19,1026,3032,2700,0,2.54150173710842,2.92037200927734,2000,2.05258941650391,2175,2.1304931640625,2.1986083984375,0,NaN
207601006,44,b_3,red,blue,X,color_change,figure_change,not_first,no_update,correct,22,1029,3034,2875,0,2.53327283672258,3.11056518554688,2300,2.06242370605469,875,2.18699645996094,2.77652740478516,0,NaN
207601006,46,b_4,red,blue,X,color_change,no_figure_change,not_first,no_update,correct,8,1014,3020,2550,0,2.51898514990713,3.05591583251953,1775,2.00711059570312,2000,2.20565032958984,2.45035552978516,0,NaN
207601006,47,b_4,blue,blue,Y,color_change,figure_change,not_first,update,correct,15,1023,3028,2475,0,2.46423493972932,2.99544525146484,1175,2.05032348632812,900,2.76568603515625,2.18091583251953,0,NaN
207601006,48,b_4,blue,blue,X,no_color_change,figure_change,not_first,update,correct,20,1028,3033,2800,0,2.52524918200923,3.05188751220703,1950,2.07113647460938,375,2.18292999267578,2.23120880126953,0,NaN
207601006,49,b_4,red,blue,X,color_change,no_figure_change,not_first,no_update,correct,15,1022,3028,3275,0,2.51954486323338,2.96974182128906,750,1.8870849609375,1350,2.37235260009766,2.59957885742188,0,NaN
207601006,50,b_4,blue,blue,X,color_change,no_figure_change,not_first,update,correct,5,1011,3016,2425,0,2.50596221612424,2.93370819091797,600,2.06456756591797,100,2.19316101074219,2.37914276123047,0,NaN
207601006,51,b_4,red,blue,Y,color_change,figure_change,not_first,no_update,correct,15,1023,3028,3050,0,2.39531827440449,2.58852386474609,1325,2.24198150634766,25,2.24198150634766,2.32939910888672,1,200
207601006,52,b_4,blue,blue,Y,color_change,no_figure_change,not_first,update,correct,21,1028,3033,2900,0,2.39456206677007,2.53704071044922,2175,2.25993347167969,200,2.283203125,2.45865631103516,0,NaN
207601006,53,b_4,blue,blue,Y,no_color_change,no_figure_change,not_first,update,correct,15,1021,3027,3075,0,2.32588494992724,2.59605407714844,1625,2.13239288330078,425,2.30043029785156,2.32103729248047,0,NaN
207601006,54,b_4,red,blue,Y,color_change,no_figure_change,not_first,no_update,correct,22,1029,3034,3025,0,2.29061377282236,2.49110412597656,2325,2.11367797851562,2100,2.33555603027344,2.22067260742188,2,187.5
207601006,55,b_4,blue,blue,X,color_change,figure_change,not_first,update,correct,12,1019,3024,3000,0,2.33458296831916,2.58889770507812,475,2.08677673339844,625,2.30100250244141,2.49000854492188,1,375
207601006,57,b_0,blue,red,Y,color_change,figure_change,not_first,no_update,correct,19,1028,3033,2675,0,2.43381806915882,2.73532104492188,1175,2.08191680908203,1075,2.63622283935547,2.54702758789062,0,NaN
207601006,58,b_0,blue,red,Y,no_color_change,no_figure_change,not_first,no_update,correct,12,1019,3024,3250,0,2.56396925683115,2.80529022216797,1900,2.40445709228516,500,2.46459197998047,2.61157989501953,0,NaN
207601006,59,b_0,red,red,X,color_change,figure_change,not_first,update,correct,21,1029,3035,3050,0,2.48914217481426,2.76404571533203,1725,2.18447875976562,2275,2.72203063964844,2.32862091064453,0,NaN
207601006,60,b_0,blue,red,X,color_change,no_figure_change,not_first,no_update,correct,10,1016,3022,2900,0,2.3925218270495,2.65580749511719,2450,2.26004791259766,2425,2.32118988037109,2.52514139811198,1,150
207601006,61,b_0,blue,red,Y,no_color_change,figure_change,not_first,no_update,correct,22,1028,3033,3175,0,2.44265417959176,2.7789306640625,1925,2.158935546875,25,2.158935546875,2.58983612060547,0,NaN
207601006,62,b_0,blue,red,X,no_color_change,figure_change,not_first,no_update,correct,9,1016,3021,3275,0,2.55400033090629,2.61187744140625,1000,2.47707366943359,1700,2.53857421875,2.57659149169922,2,212.5
207601006,63,b_0,blue,red,X,no_color_change,no_figure_change,not_first,no_update,correct,20,1027,3033,3225,0,2.43039890364105,2.65099334716797,625,2.2652587890625,1025,2.51528930664062,2.48828125,1,125
207601006,64,b_0,blue,red,X,no_color_change,no_figure_change,not_first,no_update,correct,7,1014,3020,2650,0,2.43455138860964,2.89317321777344,1925,2.13798522949219,600,2.35142517089844,2.36701202392578,0,NaN
207601006,65,b_0,blue,red,X,no_color_change,no_figure_change,not_first,no_update,correct,17,1025,3030,3075,0,2.44798020755543,2.60739135742188,575,2.30223083496094,1125,2.38138580322266,2.51435089111328,1,125
207601006,66,b_0,blue,red,X,no_color_change,no_figure_change,not_first,no_update,correct,4,1012,3017,3000,0,2.50508667440975,2.63120269775391,2150,2.33190155029297,1325,2.46033477783203,2.465087890625,1,300
207601006,67,b_0,blue,red,X,no_color_change,no_figure_change,not_first,no_update,correct,15,1021,3026,2975,0,2.5409335716098,2.84677124023438,1000,2.28269195556641,600,2.45388793945312,2.65969085693359,0,NaN
207601006,69,b_1,red,red,Y,no_color_change,figure_change,not_first,update,correct,7,1016,3022,2950,0,2.38801751728931,2.7415771484375,2450,2.19078826904297,1050,2.40073394775391,2.38470204671224,0,NaN
207601006,70,b_1,red,red,X,no_color_change,figure_change,not_first,update,correct,20,1026,3032,2725,0,2.38884877223595,2.83072662353516,900,2.11498260498047,2550,2.70854949951172,2.11498260498047,0,NaN
207601006,71,b_1,blue,red,X,color_change,no_figure_change,not_first,no_update,correct,7,1014,3018,3225,0,2.5253791809082,2.84261322021484,600,2.18975830078125,525,2.61260223388672,2.39688873291016,2,212.5
207601006,72,b_1,red,red,Y,color_change,figure_change,not_first,update,correct,15,1022,3027,2925,0,2.40218888077081,2.54603576660156,2300,2.27072143554688,1625,2.47308349609375,2.50920613606771,0,NaN
207601006,73,b_1,blue,red,Y,color_change,no_figure_change,not_first,no_update,correct,5,1012,3018,3450,0,2.37551461014093,2.51431274414062,1275,2.20703125,625,2.33364105224609,2.43893432617188,1,200
207601006,75,b_2,red,red,Y,no_color_change,figure_change,not_first,update,correct,6,1014,3019,2875,0,2.38305207794788,2.66048431396484,1750,2.13436889648438,2450,2.45472717285156,2.46620178222656,0,NaN
207601006,76,b_2,red,red,Y,no_color_change,no_figure_change,not_first,update,correct,14,1020,3026,3100,0,2.33992992407923,2.61385345458984,25,2.21275329589844,1325,2.61385345458984,2.38778617165305,1,275
207601006,77,b_2,red,red,Y,no_color_change,no_figure_change,not_first,update,correct,4,1012,3018,2800,0,2.31057997310863,2.56501770019531,1800,2.0640869140625,675,2.29445648193359,2.16578674316406,1,225
207601006,78,b_2,blue,red,Y,color_change,no_figure_change,not_first,no_update,correct,15,1023,3027,2700,0,2.36885575687184,2.91532135009766,1750,2.03713226318359,2475,2.30635070800781,2.11103057861328,1,150
207601006,80,b_3,blue,red,X,color_change,figure_change,not_first,no_update,correct,15,1024,3029,3250,0,2.42420161854137,2.62991333007812,1875,2.28569793701172,2500,2.38328552246094,2.3448486328125,0,NaN
207601006,81,b_3,red,red,Y,color_change,figure_change,not_first,update,correct,3,1011,3017,2850,0,2.37154018177706,2.62750244140625,2175,2.09161376953125,1950,2.50238800048828,2.21538543701172,0,NaN
207601006,82,b_3,blue,red,Y,color_change,no_figure_change,not_first,no_update,correct,15,1022,3027,2125,0,2.44241943359375,2.82362365722656,1950,2.22071075439453,275,2.23139953613281,2.62762451171875,1,225
207601006,83,b_3,red,red,Y,color_change,no_figure_change,not_first,update,correct,22,1028,3033,2900,0,2.4995838988061,3.00347137451172,1575,2.20553588867188,550,2.73767852783203,2.28528594970703,0,NaN
207601006,84,b_3,red,red,Y,no_color_change,no_figure_change,not_first,update,correct,11,1019,3025,2775,0,2.42017843209061,2.87570953369141,2000,1.98117065429688,2025,2.25834655761719,2.54420471191406,0,NaN
207601006,85,b_3,blue,red,X,color_change,figure_change,not_first,no_update,correct,18,1025,3030,2800,0,2.42051831413718,2.89504241943359,2500,2.13516998291016,1150,2.50941467285156,2.4798583984375,0,NaN
207601006,86,b_3,blue,red,Y,no_color_change,figure_change,not_first,no_update,correct,6,1013,3018,2650,0,2.3870018603755,2.66703796386719,125,2.14007568359375,2300,2.26719665527344,2.26799774169922,1,300
207601006,87,b_3,red,red,Y,color_change,no_figure_change,not_first,update,correct,16,1024,3030,3075,0,2.29294171052821,2.70169830322266,1175,1.96507263183594,2550,2.32540893554688,1.96507263183594,0,NaN
207601006,88,b_3,red,red,Y,no_color_change,no_figure_change,not_first,update,correct,4,1011,3016,3000,0,2.40538739223106,2.64082336425781,1600,2.2086181640625,100,2.43282318115234,2.33064270019531,0,NaN
207601006,89,b_3,red,red,X,no_color_change,figure_change,not_first,update,correct,16,1023,3029,2775,0,2.41293258560138,2.61404418945312,250,2.24217987060547,100,2.24659729003906,2.3367075238909,1,350
207601006,90,b_3,red,red,Y,no_color_change,figure_change,not_first,update,correct,2,1009,3014,2625,0,2.40217081705729,2.85748291015625,1775,2.01957702636719,650,2.24745178222656,2.76721954345703,0,NaN
207601006,91,b_3,red,red,Y,no_color_change,no_figure_change,not_first,update,correct,15,1021,3026,3300,0,2.42494010925293,2.8187255859375,1700,2.18328857421875,1450,2.28563690185547,2.33291625976562,1,375
207601006,92,b_3,red,red,Y,no_color_change,no_figure_change,not_first,update,correct,22,1030,3036,2800,0,2.43065172083238,2.78697204589844,1175,2.14058685302734,2075,2.41427612304688,2.72441101074219,0,NaN
207601006,93,b_3,blue,red,X,color_change,figure_change,not_first,no_update,correct,13,1020,3024,2925,0,2.4922337251551,2.69187927246094,1375,2.28166198730469,175,2.65330505371094,2.47437286376953,2,162.5
207601006,94,b_3,blue,red,X,no_color_change,no_figure_change,not_first,no_update,correct,22,1031,3036,3075,0,2.4621630400614,2.67815399169922,2425,2.24190521240234,2475,2.41179656982422,2.30249616834852,1,225
207601006,95,b_3,red,red,Y,color_change,figure_change,not_first,update,correct,11,1018,3023,2850,0,2.31345015881108,2.63068389892578,2350,2.13075256347656,1350,2.46918487548828,2.31883239746094,0,NaN
207601006,96,b_3,red,red,Y,no_color_change,no_figure_change,not_first,update,correct,22,1028,3034,2625,0,2.32389584709616,2.92790985107422,125,1.99123382568359,1200,2.30585479736328,2.71218109130859,1,125
207601006,97,b_3,red,red,X,no_color_change,figure_change,not_first,update,correct,9,1015,3020,1775,0,2.46079572041829,2.8358154296875,1150,2.22332763671875,25,2.22332763671875,2.39524078369141,0,NaN
207601006,98,b_3,blue,red,Y,color_change,figure_change,not_first,no_update,correct,16,1023,3029,750,0,2.47404810587565,3.00335693359375,575,2.08199310302734,725,2.36499786376953,2.650390625,0,NaN
207601006,99,b_3,blue,red,Y,no_color_change,no_figure_change,not_first,no_update,correct,21,1028,0,1500,0,2.47893295288086,2.86873626708984,975,2.04508209228516,25,2.04508209228516,2.56991577148438,0,NaN
207601006,100,b_3,red,red,Y,color_change,no_figure_change,not_first,update,correct,527,1534,4,600,0,2.36368815104167,2.65019989013672,300,2.15304565429688,600,2.4107666015625,2.15304565429688,0,NaN
207601006,101,b_3,blue,red,X,color_change,figure_change,not_first,no_update,correct,769,1776,3782,475,0,2.31482495759663,2.66895294189453,100,2.07957458496094,425,2.51382446289062,2.22644805908203,0,NaN
207601006,102,b_3,red,red,Y,color_change,figure_change,not_first,update,correct,433,1440,0,575,0,2.43595720374066,2.69564056396484,400,2.06968688964844,300,2.13858795166016,2.14015960693359,0,NaN
207601006,103,b_3,red,red,Y,no_color_change,no_figure_change,not_first,update,correct,644,1652,120,1175,0,2.44799285239362,2.91672515869141,350,2.16118621826172,25,2.16118621826172,2.33244323730469,0,NaN
207601006,104,b_3,red,red,Y,no_color_change,no_figure_change,not_first,update,correct,578,1586,3590,1175,0,2.46404298822931,2.78946685791016,1175,2.17924499511719,225,2.32472229003906,2.78946685791016,0,NaN
207601006,105,b_3,red,red,X,no_color_change,figure_change,not_first,update,correct,424,1431,3435,1300,0,2.50944562228221,2.93215179443359,750,2.24161529541016,475,2.27983856201172,2.38040924072266,0,NaN
207601006,107,b_4,blue,red,Y,color_change,figure_change,not_first,no_update,correct,22,1032,3036,2475,0,2.63002854164201,2.92069244384766,900,2.23733520507812,2175,2.447265625,2.60561370849609,1,125
207601006,108,b_4,red,red,Y,color_change,no_figure_change,not_first,update,correct,21,1028,3034,2600,0,2.53536777870328,2.99063110351562,2550,2.21597290039062,1475,2.37795257568359,2.99063110351562,0,NaN
207601006,109,b_4,blue,red,X,color_change,figure_change,not_first,no_update,correct,21,1028,3033,3225,0,2.57480340845445,3.07053375244141,50,2.14051055908203,1400,2.64031982421875,2.19051361083984,0,NaN
207917279,2,b_0,red,blue,X,color_change,no_figure_change,not_first,no_update,correct,18,1024,3029,3150,0,3.25808409218476,3.5665283203125,1250,2.92872619628906,375,3.45172882080078,3.27417755126953,0,NaN
207917279,3,b_0,red,blue,X,no_color_change,no_figure_change,not_first,no_update,correct,6,1013,3018,2675,0,3.24092291003076,3.49288177490234,1925,3.01123046875,2625,3.39908599853516,3.03217315673828,1,125
207917279,4,b_0,red,blue,X,no_color_change,no_figure_change,not_first,no_update,correct,17,1025,3030,3300,0,3.17421629718531,3.36154174804688,1625,3.0350341796875,25,3.0350341796875,3.17513275146484,1,225
207917279,6,b_1,red,blue,X,color_change,no_figure_change,not_first,no_update,correct,72,1080,3086,3200,0,3.19370141430436,3.41285705566406,400,3.02861022949219,950,3.343994140625,3.25201416015625,1,125
207917279,7,b_1,red,blue,Y,no_color_change,figure_change,not_first,no_update,correct,5,1013,3019,3175,0,3.19326739444911,3.46141815185547,850,2.97645568847656,2350,3.25829315185547,3.14485931396484,0,NaN
207917279,8,b_1,red,blue,Y,no_color_change,no_figure_change,not_first,no_update,correct,17,1023,3028,2900,0,3.12288230824693,3.41035461425781,475,2.93992614746094,2200,3.18112945556641,3.08180999755859,0,NaN
207917279,9,b_1,red,blue,X,no_color_change,figure_change,not_first,no_update,correct,4,1011,3017,3000,0,3.09383987711969,3.27860260009766,1400,2.93459320068359,2200,3.06883239746094,3.08570098876953,1,200
207917279,10,b_1,blue,blue,X,color_change,no_figure_change,not_first,update,correct,15,1022,3027,3025,0,3.15774814213548,3.31227111816406,2450,3.02513885498047,50,3.11750030517578,3.30059051513672,1,225
207917279,11,b_1,red,blue,X,color_change,no_figure_change,not_first,no_update,correct,167,1176,3180,3000,0,3.0318793180947,3.28578948974609,300,2.85002136230469,2375,3.21775054931641,3.06878662109375,0,NaN
207917279,12,b_1,red,blue,Y,no_color_change,figure_change,not_first,no_update,correct,13,1020,3026,2875,0,3.0016155064663,3.33563995361328,2450,2.72807312011719,50,2.79963684082031,3.21457672119141,0,NaN
207917279,13,b_1,blue,blue,Y,color_change,no_figure_change,not_first,update,correct,22,1028,3033,3125,0,3.22217388687847,3.54137420654297,900,2.78005218505859,1800,3.10545349121094,3.32878875732422,0,NaN
207917279,14,b_1,red,blue,Y,color_change,no_figure_change,not_first,no_update,correct,23,1030,3035,2375,0,3.03296412417763,3.34921264648438,1450,2.73139190673828,75,2.78465270996094,3.25035858154297,0,NaN
207917279,15,b_1,red,blue,Y,no_color_change,no_figure_change,not_first,no_update,correct,22,1030,3036,2325,0,3.06435694593064,3.37575531005859,1100,2.45098114013672,1950,3.13362884521484,3.19280242919922,1,125
207917279,17,b_2,red,blue,X,color_change,no_figure_change,not_first,no_update,correct,15,1021,3028,2025,0,2.84476880674009,3.07151794433594,1225,2.67015838623047,600,2.88465118408203,2.80913543701172,0,NaN
207917279,18,b_2,red,blue,Y,no_color_change,figure_change,not_first,no_update,correct,176,1184,3190,2150,0,2.98001657530319,3.18790435791016,900,2.69046020507812,25,2.69046020507812,2.74430084228516,0,NaN
207917279,19,b_2,red,blue,Y,no_color_change,no_figure_change,not_first,no_update,correct,156,1162,3167,2700,0,2.87490249348578,3.14144134521484,400,2.72517395019531,2250,2.78327178955078,2.84175109863281,0,NaN
207917279,20,b_2,red,blue,X,no_color_change,figure_change,not_first,no_update,correct,8,1015,3020,2875,0,2.8690050071645,3.1168212890625,2675,2.70802307128906,25,2.70802307128906,3.1168212890625,1,225
207917279,21,b_2,blue,blue,Y,color_change,figure_change,not_first,update,correct,16,1025,3029,3025,0,3.08844962075492,3.34983062744141,2525,2.92666625976562,1675,3.15217590332031,3.34542465209961,1,200
207917279,22,b_2,red,blue,X,color_change,figure_change,not_first,no_update,correct,6,1014,3019,3025,0,3.12284630035686,3.39882659912109,1075,2.83296203613281,1450,3.0347900390625,3.00389862060547,0,NaN
207917279,23,b_2,blue,blue,Y,color_change,figure_change,not_first,update,correct,15,1023,3028,2925,0,3.03642066171236,3.20413208007812,1925,2.84143829345703,2625,2.94579315185547,2.93817138671875,0,NaN
207917279,24,b_2,red,blue,Y,color_change,no_figure_change,not_first,no_update,correct,148,1155,3161,2775,0,3.11011105831538,3.37640380859375,2275,2.85779571533203,25,2.85779571533203,2.87432861328125,0,NaN
207917279,25,b_2,red,blue,X,no_color_change,figure_change,not_first,no_update,correct,15,1022,3028,3075,0,2.98437157746787,3.19963836669922,1900,2.85570526123047,100,2.91312408447266,3.01058959960938,1,125
207917279,26,b_2,red,blue,Y,no_color_change,figure_change,not_first,no_update,correct,22,1028,3034,3275,0,3.06870982802917,3.24937438964844,25,2.8670654296875,2125,3.24937438964844,2.92463684082031,0,NaN
207917279,27,b_2,red,blue,X,no_color_change,figure_change,not_first,no_update,correct,14,1021,3027,3275,0,2.99537159572138,3.14410400390625,2200,2.81855773925781,2525,3.03501892089844,2.85352325439453,0,NaN
207917279,28,b_2,red,blue,Y,no_color_change,figure_change,not_first,no_update,correct,22,1030,3035,3275,0,2.98073292669849,3.25079345703125,1175,2.77811431884766,1500,2.97892761230469,3.05448150634766,0,NaN
207917279,29,b_2,blue,blue,Y,color_change,no_figure_change,not_first,update,correct,12,1018,3024,3000,0,3.00797371552369,3.20124816894531,425,2.79726409912109,2575,3.03708648681641,2.82009124755859,0,NaN
207917279,31,b_3,red,blue,Y,color_change,no_figure_change,not_first,no_update,correct,236,1243,3249,2625,0,3.14469840640113,3.38705444335938,1625,2.87948608398438,2475,3.31610870361328,3.01544952392578,1,150
207917279,32,b_3,red,blue,X,no_color_change,figure_change,not_first,no_update,correct,22,1031,3036,2525,0,2.98617130695003,3.25241088867188,1350,2.73756408691406,2075,3.02275848388672,2.9210205078125,0,NaN
207917279,33,b_3,red,blue,X,no_color_change,no_figure_change,not_first,no_update,correct,100,1106,3112,2875,0,2.86738461714525,3.07032012939453,450,2.71846008300781,2350,2.95803070068359,2.79808807373047,1,175
207917279,35,b_0,red,blue,Y,color_change,figure_change,not_first,no_update,correct,22,1030,3035,2925,0,3.33161198981454,3.63313293457031,2250,3.11961364746094,125,3.23173522949219,3.32674407958984,1,175
207917279,36,b_0,red,blue,X,no_color_change,figure_change,not_first,no_update,correct,21,1027,3032,3150,0,3.2524781271676,3.49653625488281,100,2.96407318115234,2025,3.29167175292969,3.18263244628906,0,NaN
207917279,37,b_0,blue,blue,X,color_change,no_figure_change,not_first,update,correct,16,1023,3028,2675,0,3.37179911248038,3.53612518310547,2250,3.24078369140625,1950,3.38636016845703,3.28659057617188,0,NaN
207917279,38,b_0,red,blue,Y,color_change,figure_change,not_first,no_update,correct,7,1012,3017,2500,0,3.51061569213867,3.91031646728516,575,3.19153594970703,175,3.24763488769531,3.51724243164062,0,NaN
207917279,39,b_0,blue,blue,X,color_change,figure_change,not_first,update,correct,113,1121,3126,3025,0,3.30805234819929,3.58269500732422,2450,2.85494995117188,1250,3.41175079345703,3.00041961669922,1,125
207917279,40,b_0,red,blue,Y,color_change,figure_change,not_first,no_update,correct,5,1011,3017,2825,0,3.05363047234366,3.32825469970703,1075,2.73937225341797,2000,2.95732116699219,3.04477691650391,0,NaN
207917279,41,b_0,red,blue,Y,no_color_change,no_figure_change,not_first,no_update,correct,16,1022,3027,2550,0,3.06785807890051,3.36578369140625,1475,2.66366577148438,450,3.11890411376953,2.83544921875,1,125
207917279,42,b_0,blue,blue,Y,color_change,no_figure_change,not_first,update,correct,179,1186,3191,1950,0,3.11548526470478,3.47874450683594,275,2.67210388183594,1150,3.11994171142578,3.22679901123047,0,NaN
207917279,43,b_0,red,blue,X,color_change,figure_change,not_first,no_update,correct,390,1397,3401,3100,0,3.18616207514968,3.44051361083984,325,2.85700225830078,1250,3.31614685058594,3.0179443359375,1,300
207917279,44,b_0,red,blue,X,no_color_change,no_figure_change,not_first,no_update,correct,22,1029,3034,2075,0,3.01778984069824,3.41246032714844,2075,2.59336090087891,1100,2.76066589355469,3.14105987548828,0,NaN
207917279,45,b_0,blue,blue,X,color_change,no_figure_change,not_first,update,correct,13,1019,3025,1500,0,3.25601552327474,3.67258453369141,1200,2.43474578857422,1400,3.18887329101562,2.69964599609375,0,NaN
207917279,46,b_0,blue,blue,X,no_color_change,no_figure_change,not_first,update,correct,100,1106,3111,1750,0,3.05169808523996,3.71710968017578,1575,2.37114715576172,25,2.37114715576172,3.3343505859375,0,NaN
207917279,47,b_0,red,blue,Y,color_change,figure_change,not_first,no_update,correct,23,1030,3035,2150,0,3.17667415530183,3.75553894042969,275,2.50405120849609,2025,3.68621826171875,3.16140747070312,0,NaN
207917279,48,b_0,blue,blue,Y,color_change,no_figure_change,not_first,update,correct,40,1047,3053,2250,0,2.93640337933551,3.57999420166016,600,2.43255615234375,250,3.006591796875,2.95935821533203,0,NaN
207917279,49,b_0,blue,blue,Y,no_color_change,no_figure_change,not_first,update,correct,8,1015,3021,1600,0,2.76018488957332,2.98162841796875,1225,2.47843933105469,1450,2.90817260742188,2.68116760253906,0,NaN
207917279,51,b_1,red,blue,Y,color_change,figure_change,not_first,no_update,correct,69,1077,3083,1875,0,2.92157012537906,3.12055206298828,300,2.68763732910156,1375,2.85782623291016,2.8194580078125,0,NaN
207917279,52,b_1,red,blue,X,no_color_change,figure_change,not_first,no_update,correct,13,1020,3025,2950,0,3.06648546735817,3.31226348876953,2325,2.76474761962891,100,2.88813018798828,3.13327789306641,0,NaN
207917279,53,b_1,red,blue,Y,no_color_change,figure_change,not_first,no_update,correct,22,1030,3035,2925,0,3.5455662379755,3.79493713378906,2575,3.21188354492188,225,3.33145904541016,3.75347137451172,0,NaN
207917279,54,b_1,blue,blue,Y,color_change,no_figure_change,not_first,update,correct,12,1018,3025,2900,0,3.51641770835235,3.86697387695312,600,3.08270263671875,50,3.46117401123047,3.08818817138672,0,NaN
207917279,55,b_1,red,blue,Y,color_change,no_figure_change,not_first,no_update,correct,134,1140,3147,1700,0,3.39077017963796,3.87850189208984,1575,2.86370849609375,1425,3.15386962890625,3.81855773925781,0,NaN
207917279,57,b_2,red,blue,X,color_change,no_figure_change,not_first,no_update,correct,18,1026,3030,1950,0,3.36849801751632,3.71391296386719,350,2.94657897949219,700,3.37345123291016,3.18193817138672,0,NaN
207917279,58,b_2,blue,blue,Y,color_change,figure_change,not_first,update,correct,16,1023,3028,3175,0,3.37670156888873,3.56932067871094,650,3.12660980224609,50,3.21794128417969,3.27143096923828,0,NaN
207917279,59,b_2,blue,blue,X,no_color_change,figure_change,not_first,update,correct,4,1010,3016,3100,0,3.32712162766501,3.52443695068359,1600,3.13597869873047,1100,3.3265380859375,3.44898223876953,1,200
207917279,60,b_2,red,blue,X,color_change,no_figure_change,not_first,no_update,correct,65,1073,3079,2900,0,3.19811640944436,3.41481781005859,250,3.04293060302734,850,3.29146575927734,3.14358520507812,1,150
207917279,61,b_2,blue,blue,X,color_change,no_figure_change,not_first,update,correct,127,1135,3139,2825,0,3.19575386403877,3.43592834472656,525,2.92359161376953,975,3.17977905273438,3.21193695068359,0,NaN
207917279,62,b_2,red,blue,Y,color_change,figure_change,not_first,no_update,correct,14,1020,3026,2925,0,3.13896610580872,3.39476776123047,325,2.87397003173828,725,3.15335845947266,3.02535247802734,0,NaN
207917279,63,b_2,red,blue,X,no_color_change,figure_change,not_first,no_update,correct,64,1072,3077,2775,0,3.11480085426402,3.42491912841797,350,2.79369354248047,2525,3.23891448974609,2.86695861816406,0,NaN
207917279,65,b_3,red,blue,Y,color_change,no_figure_change,not_first,no_update,correct,1349,2356,4362,2600,0,3.33905603317987,3.7559814453125,50,2.84908294677734,1800,3.31221008300781,3.2099609375,0,NaN
207917279,66,b_3,red,blue,Y,no_color_change,no_figure_change,not_first,no_update,correct,7,1013,3019,2225,0,3.18514723188422,3.47669219970703,1625,2.85159301757812,1425,3.17604827880859,3.16764831542969,1,125
207917279,67,b_3,red,blue,X,no_color_change,figure_change,not_first,no_update,correct,48,1057,3062,2500,0,3.03628692626953,3.16138458251953,625,2.84503173828125,2050,3.12519073486328,3.02267456054688,0,NaN
207917279,68,b_3,blue,blue,X,color_change,no_figure_change,not_first,update,correct,411,1418,3423,2225,0,3.26235241836376,3.53456115722656,1550,2.98636627197266,1425,3.08053588867188,3.24037170410156,0,NaN
207917279,69,b_3,red,blue,X,color_change,no_figure_change,not_first,no_update,correct,499,1506,3512,2275,0,3.23983739496587,3.586669921875,400,2.97016143798828,1825,3.27754211425781,3.10354614257812,0,NaN
207917279,70,b_3,blue,blue,Y,color_change,figure_change,not_first,update,correct,92,1101,3106,2875,0,3.03500715594425,3.2874755859375,350,2.82765960693359,950,3.06974792480469,3.15087890625,1,125
208488783,2,b_0,red,blue,Y,color_change,no_figure_change,not_first,no_update,correct,16,1025,3031,3000,0,3.06090876681746,3.23625946044922,825,2.82453155517578,2125,2.9349365234375,3.02671813964844,0,NaN
208488783,3,b_0,red,blue,Y,no_color_change,no_figure_change,not_first,no_update,correct,9,1016,3023,3350,0,3.16935818254455,3.4205322265625,2675,2.90876007080078,325,2.9969482421875,3.26554870605469,0,NaN
208488783,4,b_0,red,blue,X,no_color_change,figure_change,not_first,no_update,correct,165,1174,3180,2975,0,3.22068475087484,3.39459991455078,275,2.90988922119141,750,3.35775756835938,3.31508636474609,1,125
208488783,6,b_1,red,blue,X,color_change,no_figure_change,not_first,no_update,correct,4,1011,3018,3125,0,3.0517650005246,3.29124450683594,2200,2.65495300292969,2675,3.26095581054688,2.83660125732422,0,NaN
208488783,7,b_1,blue,blue,X,color_change,no_figure_change,not_first,update,correct,15,1023,3029,3100,0,2.99161573678009,3.17317962646484,1625,2.74967956542969,3000,2.96762847900391,3.01538848876953,0,NaN
208488783,8,b_1,red,blue,Y,color_change,figure_change,not_first,no_update,correct,3,1012,3018,2875,0,2.97540092468262,3.27259826660156,2025,2.70223236083984,1950,2.87701416015625,2.90236663818359,0,NaN
208488783,9,b_1,red,blue,Y,no_color_change,no_figure_change,not_first,no_update,correct,14,1020,3025,3275,0,3.0027843191604,3.30055236816406,2650,2.77587127685547,250,2.997314453125,3.02995300292969,1,125
208488783,10,b_1,blue,blue,X,color_change,figure_change,not_first,update,correct,22,1029,3035,3175,0,3.00942815355033,3.21056365966797,1675,2.83389282226562,2950,3.0306396484375,3.03050079345703,2,250
208488783,11,b_1,blue,blue,Y,no_color_change,figure_change,not_first,update,correct,13,1020,3025,3400,0,2.95710530556923,3.24878692626953,2075,2.71231079101562,2450,2.95756530761719,2.71348571777344,2,187.5
208488783,12,b_1,blue,blue,Y,no_color_change,no_figure_change,not_first,update,correct,23,1029,3034,2300,0,2.88498318713644,3.38991546630859,2275,2.49192047119141,2025,2.66569519042969,3.34142303466797,0,NaN
208488783,13,b_1,red,blue,Y,color_change,no_figure_change,not_first,no_update,correct,22,1029,3034,3225,0,2.95665365802355,3.22129058837891,650,2.66598510742188,1550,2.81108093261719,3.01913452148438,0,NaN
208488783,14,b_1,blue,blue,Y,color_change,no_figure_change,not_first,update,correct,21,1028,3032,3125,0,3.0496515951866,3.20944976806641,2275,2.78165435791016,2425,2.91834259033203,2.92649078369141,2,125
208488783,15,b_1,blue,blue,X,no_color_change,figure_change,not_first,update,correct,9,1016,3023,3375,0,3.00182024112418,3.40272521972656,950,2.60543823242188,2050,2.98670196533203,3.01165771484375,0,NaN
208488783,16,b_1,blue,blue,X,no_color_change,no_figure_change,not_first,update,correct,20,1027,3034,2825,0,2.92380408903139,3.16203308105469,1825,2.68916320800781,2675,2.79369354248047,2.86045074462891,0,NaN
208488783,17,b_1,blue,blue,X,no_color_change,no_figure_change,not_first,update,correct,56,1065,3070,2525,0,2.9461403648452,3.15744781494141,550,2.72771453857422,250,2.77988433837891,2.81313323974609,2,125
208488783,18,b_1,blue,blue,X,no_color_change,no_figure_change,not_first,update,correct,20,1027,3034,2725,0,2.98637757734819,3.23980712890625,2500,2.743896484375,1900,3.03748321533203,3.01753234863281,0,NaN
208488783,19,b_1,blue,blue,Y,no_color_change,figure_change,not_first,update,correct,5,1011,3017,2625,0,2.97324688029739,3.16442108154297,2075,2.73965454101562,2500,3.00181579589844,3.04623413085938,1,150
208488783,20,b_1,blue,blue,X,no_color_change,figure_change,not_first,update,correct,16,1024,3030,2025,0,2.91682638773104,3.29267883300781,1500,2.58100128173828,1825,2.78462982177734,3.04385375976562,1,200
208488783,22,b_2,blue,blue,X,no_color_change,figure_change,not_first,update,correct,9,1017,3023,3075,0,3.01091996500315,3.30609893798828,1600,2.71466827392578,2700,2.96082305908203,3.05497741699219,1,125
208488783,23,b_2,blue,blue,X,no_color_change,no_figure_change,not_first,update,correct,20,1029,3034,2950,0,2.93712151150743,3.36043548583984,1025,2.56944274902344,1800,3.22756958007812,3.22561645507812,0,NaN
208488783,24,b_2,blue,blue,Y,no_color_change,figure_change,not_first,update,correct,8,1016,3021,3000,0,2.95113296508789,3.37451171875,1700,2.65155029296875,1325,3.27565002441406,2.71935272216797,1,125
208488783,25,b_2,blue,blue,Y,no_color_change,no_figure_change,not_first,update,correct,19,1027,3033,3250,0,2.93579624901133,3.30160522460938,1775,2.62340545654297,575,2.82408905029297,2.97244262695312,0,NaN
208488783,26,b_2,blue,blue,Y,no_color_change,no_figure_change,not_first,update,correct,6,1014,3018,3000,0,2.97716627120972,3.28138732910156,1375,2.76625061035156,2300,3.01065826416016,2.85940551757812,0,NaN
208488783,27,b_2,blue,blue,X,no_color_change,figure_change,not_first,update,correct,417,1426,3431,2350,0,2.92005976626748,3.38209533691406,575,2.538330078125,250,2.78717041015625,2.97248840332031,1,125
208488783,28,b_2,red,blue,Y,color_change,figure_change,not_first,no_update,correct,4,1012,3016,2850,0,2.93320965974227,3.37700653076172,2600,2.45620727539062,50,2.60626983642578,3.02729797363281,1,225
208488783,29,b_2,blue,blue,X,color_change,figure_change,not_first,update,correct,15,1021,3026,2425,0,3.0382471668477,3.61859130859375,1275,2.49889373779297,2100,2.84382629394531,2.72335815429688,1,125
208488783,30,b_2,blue,blue,Y,no_color_change,figure_change,not_first,update,correct,2,1008,3014,3175,0,2.92267879769822,3.16934204101562,475,2.69749450683594,575,2.95421600341797,2.72016906738281,1,175
208488783,32,b_3,blue,blue,Y,no_color_change,no_figure_change,not_first,update,correct,8,1016,3022,3050,0,2.97067440442803,3.22096252441406,1500,2.77149200439453,1475,3.03706359863281,2.92111968994141,1,125
208488783,33,b_3,red,blue,Y,color_change,no_figure_change,not_first,no_update,correct,20,1026,3031,3250,0,2.91773851252784,3.19334411621094,1550,2.64506530761719,650,3.02696990966797,2.91485595703125,0,NaN
208488783,34,b_3,red,blue,Y,no_color_change,no_figure_change,not_first,no_update,correct,8,1016,3021,3200,0,3.10657671463391,3.22596740722656,2825,2.93053436279297,1400,3.05528259277344,3.05271148681641,1,125
208488783,35,b_3,blue,blue,X,color_change,figure_change,not_first,update,correct,20,1029,3035,3225,0,3.02522760186314,3.21977996826172,2250,2.82740783691406,225,3.07010650634766,3.04217529296875,1,175
208488783,36,b_3,blue,blue,X,no_color_change,no_figure_change,not_first,update,correct,7,1016,3021,3200,0,3.01624625970509,3.16436004638672,250,2.85401916503906,800,3.11681365966797,3.03891754150391,1,125
208488783,37,b_3,red,blue,X,color_change,no_figure_change,not_first,no_update,correct,22,1028,3034,2950,0,2.95930868892346,3.45165252685547,1325,2.52346801757812,800,3.03321075439453,2.76798248291016,2,225
208488783,38,b_3,red,blue,X,no_color_change,no_figure_change,not_first,no_update,correct,22,1029,3034,3150,0,2.89240562291842,3.17787170410156,2050,2.55272674560547,2250,2.78295135498047,3.01458994547526,2,187.5
208488783,39,b_3,red,blue,Y,no_color_change,figure_change,not_first,no_update,correct,15,1022,3029,3025,0,2.86771455875113,3.22067260742188,2375,2.55316925048828,2775,3.18144989013672,2.92928314208984,1,125
208488783,40,b_3,blue,blue,Y,color_change,no_figure_change,not_first,update,correct,3,1009,3015,3250,0,2.90355537351498,3.18801116943359,375,2.66902923583984,1550,2.79978179931641,2.94789886474609,0,NaN
