participant_id,trial_id,block,border_color,dominant,figure,is_color_change,is_figure_change,is_first,is_update,is_correct,event_fixation,event_stimulus_on,event_stimulus_off,event_Trial_Offset,event_Trial_Onset,trial_mean,trial_max,trial_max_latency,trial_min,trial_min_latency,first_bin,last_bin,valid_blinks,blinks_mean
207280074,5,b_0,blue,red,Y,color_change,no_figure_change,not_first,no_update,correct,228,1235,3239,1875,0,3.05454143724943,3.21340942382812,600,2.80498504638672,1400,3.13676452636719,3.13800811767578,0,NaN
207280074,7,b_0,red,red,X,color_change,no_figure_change,not_first,update,correct,44,1051,3057,1775,0,3.0963872273763,3.30884552001953,1525,2.78760528564453,175,2.81352996826172,3.15083312988281,1,150
207280074,10,b_0,blue,red,X,color_change,no_figure_change,not_first,no_update,correct,11,1018,3024,2850,0,3.21018188476563,3.38010406494141,600,2.96485137939453,2475,3.13450622558594,2.97478485107422,1,275
207280074,11,b_0,red,red,X,color_change,no_figure_change,not_first,update,correct,23,1029,3034,2150,0,3.13985150359398,3.3277587890625,1750,2.89255523681641,2150,3.05990600585938,2.89255523681641,0,NaN
207280074,12,b_0,blue,red,X,color_change,no_figure_change,not_first,no_update,correct,56,1062,3067,2400,0,3.01153349876404,3.2763671875,1700,2.58246612548828,600,2.95929718017578,3.04828643798828,0,NaN
207280074,13,b_0,red,red,X,color_change,no_figure_change,not_first,update,correct,18,1024,3028,1600,0,3.23870814396785,3.4727783203125,1575,3.02976226806641,100,3.05294799804688,3.19781494140625,0,NaN
207280074,17,b_1,blue,red,X,color_change,no_figure_change,not_first,no_update,correct,9,1016,3021,2725,0,3.3680233001709,3.55973815917969,875,3.1351318359375,2100,3.44542694091797,3.31000518798828,0,NaN
207280074,18,b_1,red,red,Y,color_change,figure_change,not_first,update,correct,62,1069,3074,2850,0,3.45653575897217,3.71662139892578,1850,3.19290161132812,375,3.31982421875,3.42401123046875,0,NaN
207280074,20,b_2,blue,red,X,color_change,figure_change,not_first,no_update,correct,17,1025,3030,2600,0,3.20427642822266,3.43402099609375,500,2.94767761230469,1950,3.1358642578125,3.20498657226562,0,NaN
207280074,21,b_2,red,red,X,color_change,no_figure_change,not_first,update,correct,130,1136,3141,2500,0,3.1526106262207,3.41986083984375,1650,2.85086822509766,1000,3.25891876220703,3.08338928222656,0,NaN
207280074,22,b_2,blue,red,Y,color_change,figure_change,not_first,no_update,correct,122,1133,3138,3050,0,3.0651704788208,3.30620574951172,2275,2.84152221679688,825,3.06646728515625,3.19849395751953,0,NaN
207280074,25,b_2,red,red,X,color_change,no_figure_change,not_first,update,correct,3,1010,3015,2575,0,3.28778137207031,3.51567840576172,125,2.89618682861328,2375,3.47542572021484,2.96099853515625,1,150
207280074,27,b_3,blue,red,Y,color_change,no_figure_change,not_first,no_update,correct,12,1021,3026,2600,0,3.14474876403809,3.41767120361328,325,2.79751586914062,2250,3.17891693115234,2.93576812744141,1,125
207280074,28,b_3,red,red,X,color_change,figure_change,not_first,update,correct,68,1076,3081,2200,0,3.07378216004104,3.36826324462891,2050,2.48885345458984,75,2.80950164794922,3.20832061767578,1,150
207280074,34,b_0,red,blue,Y,color_change,figure_change,not_first,no_update,correct,21,1027,3032,3150,0,3.17611053466797,3.33453369140625,1900,3.00830841064453,2500,3.11962127685547,3.00830841064453,0,NaN
207280074,35,b_0,blue,blue,X,color_change,figure_change,not_first,update,correct,6,1013,3019,2750,0,3.05732810974121,3.26956939697266,1725,2.85881805419922,2500,2.95765686035156,2.85881805419922,0,NaN
207280074,36,b_0,red,blue,X,color_change,no_figure_change,not_first,no_update,correct,14,1020,3026,2800,0,2.9607006072998,3.14025115966797,1375,2.56417846679688,2500,3.03676605224609,2.56417846679688,1,150
207280074,37,b_0,blue,blue,X,color_change,no_figure_change,not_first,update,correct,6,1012,3017,2775,0,3.02165649414062,3.41788482666016,1725,2.61208343505859,2450,2.86319732666016,2.70832824707031,0,NaN
207280074,40,b_0,red,blue,X,color_change,figure_change,not_first,no_update,correct,16,1022,3027,2700,0,3.08526123046875,3.29377746582031,1575,2.86792755126953,2425,3.06155395507812,2.88210296630859,1,125
207280074,42,b_1,red,blue,Y,color_change,figure_change,not_first,no_update,correct,49,1059,3065,1475,0,3.24153213500977,3.57089233398438,225,2.96966552734375,850,3.10677337646484,3.27313232421875,0,NaN
207280074,45,b_1,blue,blue,X,color_change,figure_change,not_first,update,correct,8,1016,3020,2450,0,3.18711253574916,3.52938079833984,1800,2.88484954833984,2125,2.92481994628906,3.11528015136719,0,NaN
207280074,46,b_1,red,blue,X,color_change,no_figure_change,not_first,no_update,correct,20,1027,3033,2850,0,3.09574661254883,3.2900390625,1000,2.85022735595703,375,3.18360137939453,3.15175628662109,0,NaN
207280074,48,b_1,blue,blue,Y,color_change,figure_change,not_first,update,correct,15,1022,3027,3125,0,3.15500785827637,3.41718292236328,2025,2.94777679443359,1075,3.1300048828125,3.18590545654297,0,NaN
207280074,49,b_1,red,blue,X,color_change,figure_change,not_first,no_update,correct,5,1012,3016,3025,0,3.14667579650879,3.38787841796875,1125,2.65973663330078,2475,3.29621887207031,2.67146301269531,0,NaN
207280074,53,b_2,red,blue,Y,color_change,figure_change,not_first,no_update,correct,18,1027,3032,3000,0,3.10251407623291,3.29744720458984,1300,2.82331085205078,2250,3.01225280761719,2.94245529174805,0,NaN
207280074,54,b_2,blue,blue,Y,color_change,no_figure_change,not_first,update,correct,7,1013,3019,2850,0,3.23577320098877,3.51118469238281,1825,3.08008575439453,300,3.2398681640625,3.15732574462891,0,NaN
207280074,56,b_2,red,blue,X,color_change,figure_change,not_first,no_update,correct,5,1012,3018,2850,0,2.9417845916748,3.14475250244141,1650,2.57762908935547,2325,3.09040069580078,2.83051300048828,0,NaN
207280074,62,b_3,red,blue,X,color_change,figure_change,not_first,no_update,correct,3,1009,3014,2650,0,3.12933742523193,3.31658172607422,550,2.80301666259766,1675,3.05926513671875,3.09664916992188,1,150
207280074,64,b_3,blue,blue,X,color_change,figure_change,not_first,update,correct,23,1030,3035,2650,0,3.01868270874023,3.23992156982422,1500,2.74485778808594,675,2.97437286376953,3.09323883056641,1,125
207280074,65,b_3,red,blue,X,color_change,no_figure_change,not_first,no_update,correct,116,1125,3129,3175,0,3.17118537902832,3.37053680419922,2150,2.94319915771484,675,3.10186767578125,3.23143768310547,1,125
207280074,66,b_3,blue,blue,X,color_change,no_figure_change,not_first,update,correct,16,1023,3027,2650,0,3.00674980163574,3.28884124755859,2400,2.65443420410156,150,2.9346923828125,2.93006134033203,0,NaN
207280074,70,b_0,red,blue,X,color_change,figure_change,not_first,no_update,correct,7,1014,3020,1750,0,3.2040340423584,3.35401153564453,600,2.92093658447266,1525,3.16840362548828,2.94403839111328,1,200
207280074,74,b_1,red,blue,Y,color_change,no_figure_change,not_first,no_update,correct,22,1028,3034,2300,0,2.94115514340608,3.33216857910156,225,2.67013549804688,1800,3.10182189941406,2.94532775878906,0,NaN
207280074,75,b_1,blue,blue,X,color_change,figure_change,not_first,update,correct,30,1038,3044,2175,0,3.03453458588699,3.26097106933594,1150,2.80307006835938,1475,2.96558380126953,3.08377075195312,0,NaN
207280074,78,b_2,red,blue,X,color_change,figure_change,not_first,no_update,correct,12,1019,3025,3050,0,3.0833952331543,3.30966186523438,700,2.68353271484375,2400,3.09151458740234,2.79827117919922,0,NaN
207280074,84,b_2,blue,blue,Y,color_change,no_figure_change,not_first,update,correct,43,1050,0,375,0,2.97308349609375,3.24767303466797,300,2.70476531982422,175,3.12617492675781,3.14817047119141,0,NaN
207280074,91,b_3,red,blue,X,color_change,no_figure_change,not_first,no_update,correct,5,1012,3018,1700,0,2.91217041015625,3.21773529052734,1375,2.55811309814453,925,3.02048492431641,2.89324951171875,0,NaN
207280074,94,b_3,blue,blue,X,color_change,figure_change,not_first,update,correct,21,1030,3033,3200,0,3.32846496582031,3.47754669189453,2050,3.22151184082031,1000,3.25142669677734,3.33904266357422,0,NaN
207280074,96,b_3,red,blue,Y,color_change,no_figure_change,not_first,no_update,correct,22,1029,3033,1975,0,3.27187356948853,3.49655151367188,225,3.01280212402344,1725,3.32400512695312,3.1435546875,0,NaN
207280074,98,b_3,blue,blue,X,color_change,figure_change,not_first,update,correct,21,1028,3034,2375,0,3.15297587712606,3.35955047607422,1500,2.93222808837891,1000,3.28215789794922,3.11367034912109,0,NaN
207280074,101,b_0,red,blue,Y,color_change,figure_change,not_first,no_update,correct,15,1023,3027,2325,0,2.97893094001932,3.2650146484375,300,2.69528961181641,1800,3.08835601806641,2.90997314453125,0,NaN
207280074,103,b_0,blue,blue,Y,color_change,no_figure_change,not_first,update,correct,16,1022,3027,2975,0,3.23238952636719,3.33197784423828,1625,3.07038879394531,650,3.24491119384766,3.31159973144531,2,162.5
207280074,106,b_1,red,blue,Y,color_change,no_figure_change,not_first,no_update,correct,37,1044,3050,2525,0,3.32459030151367,3.45928955078125,775,3.13268280029297,2400,3.31800079345703,3.26443481445312,0,NaN
207280074,107,b_1,blue,blue,X,color_change,figure_change,not_first,update,correct,22,1029,3034,2700,0,3.2657975769043,3.53299713134766,1675,3.00177001953125,2150,3.19881439208984,3.04881286621094,0,NaN
207280074,108,b_1,red,blue,Y,color_change,figure_change,not_first,no_update,correct,11,1017,3023,2200,0,3.23399959911,3.44632720947266,1025,2.86157989501953,1925,3.21234130859375,2.98706817626953,1,150
207280074,110,b_1,blue,blue,Y,color_change,figure_change,not_first,update,correct,9,1015,3021,2725,0,3.25689147949219,3.5205078125,1725,3.08155822753906,875,3.27050018310547,3.46278381347656,0,NaN
207280074,111,b_1,red,blue,X,color_change,figure_change,not_first,no_update,correct,56,1062,3067,2350,0,3.30042380474983,3.60684204101562,100,3.06493377685547,1850,3.45211791992188,3.06932067871094,0,NaN
207280074,115,b_1,blue,blue,Y,color_change,figure_change,not_first,update,correct,63,1071,3076,2750,0,3.0533048248291,3.5047607421875,1850,2.56375122070312,900,3.32384490966797,3.38533782958984,0,NaN
207280074,116,b_1,red,blue,X,color_change,figure_change,not_first,no_update,correct,3,1011,3016,2750,0,2.98589667495416,3.39104461669922,50,2.59642028808594,1975,3.39104461669922,2.94319915771484,0,NaN
207280074,122,b_2,red,blue,X,color_change,figure_change,not_first,no_update,correct,21,1028,3034,3100,0,3.15470191955566,3.4200439453125,950,2.66300201416016,2300,3.25777435302734,2.82830810546875,1,175
207280074,123,b_2,blue,blue,X,color_change,no_figure_change,not_first,update,correct,12,1018,3024,2825,0,2.94655891418457,3.28195953369141,1925,2.62400054931641,1225,3.00637817382812,2.89665222167969,0,NaN
207280074,124,b_2,red,blue,Y,color_change,figure_change,not_first,no_update,correct,88,1095,3099,3100,0,3.03778266906738,3.22906494140625,325,2.80515289306641,2500,3.08339691162109,2.80515289306641,1,225
207280074,126,b_2,blue,blue,Y,color_change,figure_change,not_first,update,correct,25,1034,3038,3150,0,2.92136329650879,3.13607788085938,50,2.73249816894531,300,2.8621826171875,2.92060852050781,2,150
207280074,127,b_2,red,blue,X,color_change,figure_change,not_first,no_update,correct,7,1014,3021,2825,0,2.97683334350586,3.17103576660156,2100,2.72877502441406,1475,2.89167022705078,2.97885131835938,1,150
207280074,130,b_3,red,blue,Y,color_change,no_figure_change,not_first,no_update,correct,10,1017,3021,3325,0,3.09449035644531,3.22917938232422,1975,2.88400268554688,825,3.09243011474609,3.10941314697266,0,NaN
207280074,131,b_3,blue,blue,X,color_change,figure_change,not_first,update,correct,22,1030,3036,3100,0,3.12634330749512,3.40352630615234,475,2.85387420654297,575,2.95925903320312,2.87178802490234,0,NaN
207280074,132,b_3,red,blue,Y,color_change,figure_change,not_first,no_update,correct,8,1017,3023,3250,0,3.23464778900146,3.40366363525391,1350,3.08751678466797,1700,3.21250915527344,3.24052429199219,1,150
207280074,135,b_0,blue,red,X,color_change,no_figure_change,not_first,no_update,correct,23,528,1530,2325,0,3.09530221262286,3.42581176757812,2275,2.72891235351562,1050,3.00676727294922,3.3779296875,1,200
207280074,136,b_0,red,red,X,color_change,no_figure_change,not_first,update,correct,12,515,1518,2850,0,3.32576583862305,3.45093536376953,800,3.12505340576172,1925,3.39813995361328,3.12716674804688,1,175
207280074,138,b_0,blue,red,X,color_change,figure_change,not_first,no_update,correct,6,509,1511,3325,0,3.19348449707031,3.42909240722656,25,2.87551879882812,1275,3.42909240722656,3.29457855224609,0,NaN
207280074,139,b_0,red,red,Y,color_change,figure_change,not_first,update,correct,12,515,1518,1900,0,2.95292376233386,3.12443542480469,575,2.75536346435547,25,2.75536346435547,2.83486175537109,0,NaN
207280074,141,b_1,blue,red,Y,color_change,figure_change,not_first,no_update,correct,6,510,1512,2325,0,2.99272102437994,3.27635192871094,1100,2.62409973144531,275,2.95453643798828,3.07301330566406,0,NaN
207280074,145,b_1,red,red,X,color_change,no_figure_change,not_first,update,correct,6,510,1513,3225,0,3.06124366760254,3.32648468017578,1425,2.71944427490234,375,3.07975006103516,2.9554443359375,1,125
207280074,147,b_1,blue,red,Y,color_change,figure_change,not_first,no_update,correct,691,1194,2197,2850,0,3.04181009409379,3.34149932861328,1725,2.6668701171875,1300,2.84552001953125,3.18149566650391,0,NaN
207280074,148,b_1,red,red,Y,color_change,no_figure_change,not_first,update,correct,8,511,1513,2450,0,3.08280528675426,3.37374114990234,650,2.70763397216797,1400,3.22499847412109,2.72030639648438,0,NaN
207280074,149,b_1,blue,red,Y,color_change,no_figure_change,not_first,no_update,correct,2,505,0,975,0,2.84879029102814,3.13935089111328,900,2.54541015625,750,2.92031860351562,2.59872436523438,1,150
207280074,153,b_2,blue,red,Y,color_change,figure_change,not_first,no_update,correct,11,515,1518,1825,0,3.05265808105469,3.27238464355469,1775,2.75829315185547,350,2.83420562744141,3.27238464355469,1,175
207280074,156,b_2,red,red,X,color_change,no_figure_change,not_first,update,correct,4,508,1511,2325,0,3.12281200449954,3.37740325927734,825,2.89608764648438,1500,3.13389587402344,3.0546875,0,NaN
207280074,163,b_3,blue,red,Y,color_change,no_figure_change,not_first,no_update,correct,7,510,0,2375,0,3.11621398925781,3.26890563964844,900,2.85567474365234,2025,3.10637664794922,3.07743835449219,0,NaN
207280074,164,b_3,red,red,X,color_change,figure_change,not_first,update,correct,344,848,82,1250,0,3.20879455566406,3.48274993896484,250,2.90151214599609,900,3.10166168212891,3.20573425292969,0,NaN
207280074,167,b_3,blue,red,X,color_change,figure_change,not_first,no_update,correct,11,514,1518,2525,0,2.92406272888184,3.49636077880859,50,2.4044189453125,2075,3.36623382568359,2.91788482666016,0,NaN
207280074,168,b_3,red,red,X,color_change,no_figure_change,not_first,update,correct,5,508,1511,3175,0,3.16803833007812,3.37841796875,1925,2.87926483154297,2325,2.95308685302734,3.06699371337891,0,NaN
207280074,171,b_3,blue,red,Y,color_change,figure_change,not_first,no_update,correct,35,538,1540,2500,0,2.99287445068359,3.21923828125,1050,2.6893310546875,250,2.76467132568359,2.97216796875,1,125
207280074,172,b_3,red,red,X,color_change,figure_change,not_first,update,correct,4,507,1509,3000,0,3.045390625,3.2691650390625,2400,2.69232940673828,2450,2.98056793212891,2.74983978271484,1,200
207280074,173,b_3,blue,red,Y,color_change,figure_change,not_first,no_update,correct,44,548,1550,2200,0,2.85064628686798,3.19184112548828,2200,2.47052764892578,1625,2.64133453369141,3.10642242431641,0,NaN
207280074,174,b_3,red,red,X,color_change,figure_change,not_first,update,correct,2,506,1509,1950,0,3.27714422684682,3.48671722412109,1650,3.05751037597656,1575,3.08325958251953,3.40023803710938,0,NaN
207280074,176,b_3,blue,red,X,color_change,figure_change,not_first,no_update,correct,1,504,1508,2750,0,2.89254104614258,3.15721893310547,175,2.50482940673828,775,3.07546997070312,2.73587036132812,1,125
207280074,178,b_0,blue,red,Y,color_change,figure_change,not_first,no_update,correct,23,1031,3036,2250,0,3.25698550716861,3.43492889404297,375,2.92497253417969,1450,3.40321350097656,3.32316589355469,0,NaN
207280074,179,b_0,red,red,Y,color_change,no_figure_change,not_first,update,correct,12,1019,3025,1625,0,3.25061891995944,3.46308898925781,1100,2.92740631103516,425,3.34823608398438,3.00078582763672,0,NaN
207280074,183,b_1,blue,red,Y,color_change,figure_change,not_first,no_update,correct,9,1017,3023,2250,0,2.9736947801378,3.18388366699219,1550,2.70049285888672,900,3.12409210205078,2.95758056640625,0,NaN
207280074,188,b_1,red,red,X,color_change,no_figure_change,not_first,update,correct,18,1025,3030,2100,0,3.23654856962316,3.45979309082031,600,3.08259582519531,850,3.294677734375,3.15908813476562,0,NaN
207280074,190,b_2,blue,red,X,color_change,no_figure_change,not_first,no_update,correct,17,1023,3029,2175,0,3.07792446830056,3.24697113037109,1225,2.88246917724609,1950,2.98477172851562,2.96890258789062,0,NaN
207280074,193,b_2,red,red,X,color_change,no_figure_change,not_first,update,correct,4,1010,3016,2225,0,3.08772595009107,3.25218200683594,1575,2.80834197998047,1925,3.20017242431641,3.16315460205078,0,NaN
207280074,194,b_2,blue,red,X,color_change,no_figure_change,not_first,no_update,correct,22,1029,3036,2600,0,3.28818412780762,3.49977874755859,1200,3.07192993164062,2000,3.22902679443359,3.20869445800781,0,NaN
207280074,197,b_3,blue,red,Y,color_change,figure_change,not_first,no_update,correct,26,1034,3039,2700,0,3.14396011352539,3.41303253173828,2075,2.826171875,2500,3.08779144287109,2.826171875,0,NaN
207280074,199,b_3,red,red,Y,color_change,figure_change,not_first,update,correct,22,1030,3034,1875,0,3.12911275227865,3.49803161621094,1675,2.79355621337891,725,3.07738494873047,3.15726470947266,0,NaN
207280074,200,b_3,blue,red,X,color_change,figure_change,not_first,no_update,correct,113,1120,3126,2225,0,3.1112805484386,3.35764312744141,1675,2.72651672363281,2225,3.21224212646484,2.72651672363281,0,NaN
207280074,203,b_3,red,red,Y,color_change,figure_change,not_first,update,correct,39,1046,3051,2300,0,3.03376023665718,3.30789947509766,1075,2.77079010009766,1700,2.94875335693359,3.25294494628906,0,NaN
207280074,205,b_3,blue,red,X,color_change,no_figure_change,not_first,no_update,correct,132,1139,3145,1975,0,3.13624988024748,3.34150695800781,1375,2.92562103271484,625,3.02713775634766,3.07546997070312,0,NaN
207280074,206,b_3,red,red,X,color_change,no_figure_change,not_first,update,correct,90,1098,3103,2150,0,3.0680058945057,3.24721527099609,2100,2.89032745361328,1600,3.00660705566406,3.03166198730469,0,NaN
208278119,2,b_0,red,blue,Y,color_change,no_figure_change,not_first,no_update,correct,17,1024,3029,2825,0,3.94560067695484,4.36910247802734,2625,3.65767669677734,1200,3.94649505615234,4.36910247802734,1,225
208278119,3,b_0,blue,blue,X,color_change,figure_change,not_first,update,correct,6,1014,3018,2300,0,4.00348696144678,4.58721923828125,175,3.43363952636719,1700,4.31624603271484,3.77853393554688,1,125
208278119,6,b_0,red,blue,Y,color_change,no_figure_change,not_first,no_update,correct,17,1024,3028,2300,0,3.76497584517284,3.93486022949219,1650,3.52389526367188,1175,3.80296325683594,3.53661346435547,2,275
208278119,7,b_0,blue,blue,X,color_change,figure_change,not_first,update,correct,2,1010,3015,3450,0,3.82375108150014,4.251220703125,2850,3.41596984863281,2000,3.66644287109375,4.251220703125,0,NaN
208278119,11,b_1,red,blue,X,color_change,no_figure_change,not_first,no_update,correct,14,1021,3026,2875,0,3.42434859694096,3.57823944091797,1575,3.24034118652344,1350,3.51094818115234,3.46946716308594,0,NaN
208278119,12,b_1,blue,blue,Y,color_change,figure_change,not_first,update,correct,4,1012,3017,2350,0,3.39034415797183,3.63084411621094,300,3.15663909912109,175,3.45511627197266,3.34253692626953,0,NaN
208278119,14,b_1,red,blue,X,color_change,no_figure_change,not_first,no_update,correct,140,1147,3153,3125,0,3.87228253013209,4.05731964111328,2150,3.57868957519531,2825,3.73239898681641,3.61932373046875,1,275
208278119,15,b_1,blue,blue,X,color_change,no_figure_change,not_first,update,correct,14,1021,3026,3075,0,3.65462801749246,3.95299530029297,2100,3.42285919189453,700,3.78917694091797,3.47483825683594,0,NaN
208278119,16,b_1,red,blue,Y,color_change,figure_change,not_first,no_update,correct,23,1030,3035,3175,0,3.42655630279006,3.58240509033203,200,3.29860687255859,1025,3.56175231933594,3.52687072753906,1,175
208278119,17,b_1,blue,blue,X,color_change,figure_change,not_first,update,correct,12,1019,3024,2875,0,3.46371252494946,3.73416900634766,575,3.16690063476562,2325,3.46167755126953,3.56827545166016,0,NaN
208278119,19,b_2,red,blue,Y,color_change,figure_change,not_first,no_update,correct,6,1016,3021,2525,0,3.44286837436185,3.70504760742188,2475,3.16006469726562,100,3.24170684814453,3.66585540771484,0,NaN
208278119,20,b_2,blue,blue,Y,color_change,no_figure_change,not_first,update,correct,17,1023,3029,2875,0,3.66513529995032,4.08214569091797,500,3.31386566162109,2650,3.63794708251953,3.45397186279297,0,NaN
208278119,21,b_2,red,blue,X,color_change,figure_change,not_first,no_update,correct,6,1014,3018,2925,0,3.57779124745151,3.94994354248047,2000,3.33058929443359,2675,3.53133392333984,3.37117004394531,1,275
208278119,24,b_3,red,blue,Y,color_change,no_figure_change,not_first,no_update,correct,21,1027,3032,2925,0,3.50438961229826,3.69650268554688,325,3.283447265625,2450,3.49039459228516,3.52519226074219,2,187.5
208278119,25,b_3,blue,blue,X,color_change,figure_change,not_first,update,correct,8,1016,3022,2475,0,3.4924720224708,3.88204193115234,850,3.10285186767578,1550,3.66812896728516,3.58514404296875,1,125
208278119,26,b_3,red,blue,X,color_change,no_figure_change,not_first,no_update,correct,22,1028,3034,2725,0,3.49579890858043,3.91980743408203,2650,3.10166168212891,1750,3.54645538330078,3.91980743408203,0,NaN
208278119,28,b_3,blue,blue,Y,color_change,figure_change,not_first,update,correct,16,1024,3028,2175,0,3.94936162775213,4.19131469726562,700,3.74060821533203,200,3.87314605712891,3.91617584228516,0,NaN
208278119,30,b_3,red,blue,Y,color_change,figure_change,not_first,no_update,correct,22,1029,3033,2750,0,4.50398577440966,5.033935546875,1250,4.08419036865234,2625,4.82740020751953,4.29566192626953,0,NaN
208278119,35,b_0,red,blue,X,color_change,figure_change,not_first,no_update,correct,219,1225,3230,2800,0,4.05900296911729,4.44223785400391,400,3.66790008544922,1875,4.21623229980469,3.82700347900391,1,125
208278119,39,b_1,red,blue,X,color_change,figure_change,not_first,no_update,correct,21,1031,3035,3275,0,3.63832681220874,3.85532379150391,25,3.38622283935547,2800,3.85532379150391,3.39399719238281,0,NaN
208278119,41,b_1,blue,blue,X,color_change,figure_change,not_first,update,correct,20,1028,3033,2600,0,3.85157194591704,4.1273193359375,1925,3.47830963134766,50,3.61363983154297,3.98377227783203,0,NaN
208278119,42,b_1,red,blue,Y,color_change,figure_change,not_first,no_update,correct,7,1014,0,1500,0,3.86493364969889,4.04032897949219,25,3.68705749511719,1425,4.04032897949219,3.83151245117188,0,NaN
208278119,46,b_1,blue,blue,Y,color_change,no_figure_change,not_first,update,correct,3,1011,3016,2725,0,4.17263793945312,4.54742431640625,1775,3.90904998779297,50,4.08652496337891,3.95811462402344,0,NaN
208278119,49,b_2,red,blue,X,color_change,figure_change,not_first,no_update,correct,230,1240,3244,3000,0,3.87234286258095,4.15328979492188,325,3.65174865722656,2450,3.99658966064453,3.78924560546875,1,200
208278119,51,b_2,blue,blue,X,color_change,figure_change,not_first,update,correct,5,1012,3017,2425,0,3.99090202487245,4.40724182128906,1675,3.55979156494141,25,3.55979156494141,3.98313140869141,0,NaN
208278119,56,b_3,red,blue,Y,color_change,no_figure_change,not_first,no_update,correct,21,1029,3034,2950,0,3.67991290176124,3.95958709716797,2275,3.39009094238281,200,3.57452392578125,3.49256896972656,0,NaN
208278119,58,b_3,blue,blue,X,color_change,no_figure_change,not_first,update,correct,168,1176,3181,2825,0,3.99047955295496,4.43382263183594,500,3.61800384521484,2650,3.79114532470703,3.84247589111328,0,NaN
208278119,59,b_3,red,blue,X,color_change,no_figure_change,not_first,no_update,correct,6,1013,3018,3150,0,3.79401832714415,4.19709014892578,300,3.29928588867188,2825,3.96689605712891,3.39382934570312,0,NaN
208278119,60,b_3,blue,blue,Y,color_change,figure_change,not_first,update,correct,16,1023,3028,2925,0,3.65571185998749,4.17420959472656,1650,3.35173034667969,550,3.41824340820312,3.67417907714844,0,NaN
208278119,64,b_3,red,blue,Y,color_change,figure_change,not_first,no_update,correct,14,1020,3026,2950,0,4.17112524467602,4.66339111328125,1825,3.80751800537109,25,3.80751800537109,4.40157318115234,1,125
208278119,65,b_3,blue,blue,X,color_change,figure_change,not_first,update,correct,22,1030,3034,3025,0,4.2031930287679,4.72503662109375,1750,3.84918212890625,2850,4.37518310546875,3.84918212890625,0,NaN
208278119,66,b_3,red,blue,Y,color_change,figure_change,not_first,no_update,correct,11,1019,3024,3050,0,3.98499913801227,4.49119567871094,600,3.52841949462891,2550,3.91258239746094,3.79167938232422,0,NaN
208278119,68,b_0,red,blue,Y,color_change,figure_change,not_first,no_update,correct,2,1011,3015,1775,0,4.90321879916721,5.50559234619141,350,4.15020751953125,125,4.59919738769531,4.55359649658203,0,NaN
208278119,69,b_0,blue,blue,Y,color_change,no_figure_change,not_first,update,correct,16,1022,3029,2025,0,4.68817408491925,5.29752349853516,425,4.14273834228516,1700,4.71656036376953,4.56504058837891,0,NaN
208278119,70,b_0,red,blue,X,color_change,figure_change,not_first,no_update,correct,3,1009,3014,2375,0,4.7163200378418,5.18263244628906,2000,4.41216278076172,1775,4.58483123779297,4.56519317626953,0,NaN
208278119,72,b_0,blue,blue,Y,color_change,no_figure_change,not_first,update,correct,22,1030,3036,3100,0,4.47552868357876,4.87838745117188,1275,4.21707916259766,2825,4.36106109619141,4.22937774658203,0,NaN
208278119,74,b_0,red,blue,Y,color_change,figure_change,not_first,no_update,correct,22,1030,3035,3075,0,4.27744209557249,4.98792266845703,2200,3.88949584960938,1650,4.52566528320312,4.48993682861328,0,NaN
208278119,76,b_1,red,blue,Y,color_change,figure_change,not_first,no_update,correct,14,1023,3028,2750,0,3.92183523779517,4.30565643310547,2275,3.73070526123047,2500,3.85124969482422,3.76718139648438,0,NaN
208278119,77,b_1,blue,blue,X,color_change,figure_change,not_first,update,correct,6,1016,3022,2875,0,4.06629124022367,4.58087921142578,2200,3.76384735107422,475,3.79209899902344,3.88578796386719,0,NaN
208278119,79,b_1,red,blue,X,color_change,figure_change,not_first,no_update,correct,250,1257,3264,3100,0,4.10026817991023,4.62462615966797,2550,3.71195983886719,75,4.37857055664062,3.76755523681641,0,NaN
208278119,81,b_2,red,blue,X,color_change,figure_change,not_first,no_update,correct,131,1139,3144,2750,0,4.17790107727051,4.81867218017578,2000,3.81945037841797,1225,3.85218048095703,4.14517211914062,1,250
208278119,84,b_2,blue,blue,Y,color_change,figure_change,not_first,update,correct,16,1022,3027,3100,0,3.75767108850312,3.93931579589844,1050,3.61324310302734,525,3.65441131591797,3.64913177490234,1,125
208278119,85,b_2,red,blue,Y,color_change,no_figure_change,not_first,no_update,correct,5,1014,3018,3100,0,3.76812677216112,4.24724578857422,1500,3.45639038085938,2725,3.52434539794922,3.54119873046875,0,NaN
208278119,87,b_2,blue,blue,X,color_change,figure_change,not_first,update,correct,2,1009,3015,2975,0,4.27380047625268,4.59891510009766,1375,4.04129028320312,1675,4.15608978271484,4.29285600450304,1,225
208278119,89,b_2,red,blue,Y,color_change,no_figure_change,not_first,no_update,correct,23,1030,3035,2800,0,4.14022253255929,4.638671875,1175,3.79560852050781,2750,3.94142150878906,3.80982971191406,0,NaN
208278119,90,b_2,blue,blue,Y,color_change,no_figure_change,not_first,update,correct,18,1028,3033,3025,0,4.26311071295487,4.77824401855469,2525,3.82511138916016,25,3.82511138916016,4.27903747558594,1,125
208278119,92,b_2,red,blue,X,color_change,figure_change,not_first,no_update,correct,206,1213,3218,3200,0,4.23782268323396,4.68717193603516,1350,3.94825744628906,2850,4.35274505615234,3.94825744628906,0,NaN
208278119,94,b_2,blue,blue,X,color_change,figure_change,not_first,update,correct,9,1017,3022,2700,0,4.18707887842021,4.53604888916016,2000,3.98796844482422,25,3.98796844482422,4.00865936279297,1,250
208278119,97,b_3,red,blue,X,color_change,no_figure_change,not_first,no_update,correct,4,1010,3016,3050,0,3.31072041026333,3.72378540039062,25,2.97462463378906,2750,3.72378540039062,3.02581787109375,0,NaN
208278119,98,b_3,blue,blue,X,color_change,no_figure_change,not_first,update,correct,13,1020,3026,2550,0,3.24916765527818,3.59304809570312,2475,2.98445892333984,75,3.01242828369141,3.59304809570312,0,NaN
208278119,100,b_0,blue,red,X,color_change,no_figure_change,not_first,no_update,correct,19,1026,3032,3100,0,4.25404796265719,4.48397827148438,2125,3.9415283203125,2625,4.19208526611328,4.13080596923828,0,NaN
208278119,102,b_0,red,red,Y,color_change,figure_change,not_first,update,correct,16,1024,3029,3000,0,4.20688140601443,4.39003753662109,2350,4.02200317382812,2050,4.11318969726562,4.0537109375,1,200
208278119,103,b_0,blue,red,Y,color_change,no_figure_change,not_first,no_update,correct,6,1012,3017,3125,0,4.19010353088379,4.3858642578125,2275,4.04407501220703,1150,4.15163421630859,4.32999420166016,0,NaN
208278119,105,b_0,red,red,X,color_change,no_figure_change,not_first,update,correct,7,1016,3021,2875,0,4.2726756982636,4.82003784179688,175,3.85358428955078,2450,4.41761779785156,4.09139251708984,0,NaN
208278119,107,b_0,blue,red,Y,color_change,no_figure_change,not_first,no_update,correct,3,1010,3016,2975,0,4.46459255387298,4.83442687988281,2175,4.21189117431641,1100,4.37107849121094,4.61170959472656,0,NaN
208278119,109,b_0,red,red,X,color_change,figure_change,not_first,update,correct,30,1037,3043,3525,0,4.37583093475877,4.66064453125,2800,4.22975158691406,1775,4.37789154052734,4.49367523193359,1,275
208278119,110,b_0,blue,red,Y,color_change,figure_change,not_first,no_update,correct,10,1017,3021,3300,0,4.64449149683902,4.97362518310547,1775,4.36935424804688,2375,4.56189727783203,4.8621826171875,0,NaN
208278119,111,b_0,red,red,Y,color_change,no_figure_change,not_first,update,correct,23,1030,3035,3100,0,4.5486302961383,4.97080230712891,800,4.19734191894531,175,4.41293334960938,4.32588195800781,0,NaN
208278119,117,b_1,blue,red,Y,color_change,no_figure_change,not_first,no_update,correct,11,1019,3024,3075,0,3.85814310527114,4.15477752685547,2750,3.68505859375,2050,3.83624267578125,4.13731314919212,1,275
208278119,119,b_1,red,red,Y,color_change,figure_change,not_first,update,correct,14,1021,3026,3075,0,4.02467085185804,4.27443695068359,75,3.82894897460938,2100,4.14096832275391,3.98164367675781,0,NaN
208278119,122,b_1,blue,red,Y,color_change,figure_change,not_first,no_update,correct,9,1015,3020,3000,0,4.17369420904862,4.46383666992188,50,3.70657348632812,2625,4.13168334960938,3.91349792480469,1,250
208278119,123,b_1,red,red,Y,color_change,no_figure_change,not_first,update,correct,25,1035,3039,3100,0,3.87067701105486,4.09920501708984,2725,3.64881896972656,2325,3.7857666015625,3.92733764648438,0,NaN
208278119,126,b_1,blue,red,X,color_change,figure_change,not_first,no_update,correct,26,1034,3039,2850,0,3.89492523461057,4.14505767822266,1650,3.57147979736328,2450,3.83592224121094,3.96035766601562,0,NaN
208278119,128,b_2,blue,red,Y,color_change,no_figure_change,not_first,no_update,correct,22,1029,3035,3000,0,3.92449971249229,4.23896789550781,2000,3.63706207275391,550,4.05947113037109,3.825927734375,1,200
208278119,130,b_2,red,red,X,color_change,figure_change,not_first,update,correct,29,1039,3044,3100,0,3.77926983749657,4.04998779296875,1150,3.37828063964844,2475,3.73141479492188,3.56116485595703,0,NaN
208278119,134,b_3,blue,red,Y,color_change,no_figure_change,not_first,no_update,correct,21,1027,3033,3050,0,4.26908288922226,4.55364227294922,1750,4.01216888427734,1400,4.16738128662109,4.54777526855469,1,275
208278119,135,b_3,red,red,X,color_change,figure_change,not_first,update,correct,8,1015,3021,3050,0,4.05184551335682,4.38739013671875,2100,3.82034301757812,925,4.15949249267578,4.06695641411675,2,175
208278119,136,b_3,blue,red,X,color_change,no_figure_change,not_first,no_update,correct,17,1024,3029,3025,0,3.87812370166444,4.21212768554688,100,3.51428985595703,2650,4.07166290283203,3.57082366943359,0,NaN
208278119,137,b_3,red,red,Y,color_change,figure_change,not_first,update,correct,7,1013,3018,3300,0,3.82865785297595,4.03798675537109,2125,3.60520172119141,325,3.71666717529297,3.74788665771484,0,NaN
208278119,139,b_0,blue,red,X,color_change,figure_change,not_first,no_update,correct,2,1011,3015,2925,0,4.31082099780702,4.65642547607422,2300,4.10747528076172,2075,4.31793212890625,4.26302337646484,1,325
208278119,141,b_0,red,red,X,color_change,no_figure_change,not_first,update,correct,22,1029,3034,3300,0,4.26843874078048,4.47324371337891,2775,4.06626129150391,1875,4.42123413085938,4.37075614929199,0,NaN
208278119,143,b_0,blue,red,X,color_change,figure_change,not_first,no_update,correct,23,1030,3034,3525,0,4.19021526135896,4.55043792724609,2375,3.83437347412109,75,3.94696044921875,4.32637786865234,0,NaN
208278119,145,b_0,red,red,X,color_change,figure_change,not_first,update,correct,21,1028,3033,3300,0,4.44079978005928,4.75455474853516,150,4.25234222412109,1825,4.49774932861328,4.44474029541016,1,150
208278119,146,b_0,blue,red,X,color_change,no_figure_change,not_first,no_update,correct,9,1015,3020,2575,0,4.33233679614021,4.87299346923828,2250,3.89335632324219,1250,4.51305389404297,4.50343322753906,1,125
208278119,149,b_1,blue,red,X,color_change,figure_change,not_first,no_update,correct,2,1010,3017,2650,0,4.26526469104695,4.76851654052734,1550,3.91441345214844,1250,4.06044769287109,4.16368103027344,0,NaN
208278119,151,b_1,red,red,Y,color_change,figure_change,not_first,update,correct,21,1028,3033,3025,0,4.49200921309622,4.95285797119141,2225,4.14258575439453,200,4.18626403808594,4.64740753173828,0,NaN
208278119,153,b_1,blue,red,X,color_change,no_figure_change,not_first,no_update,correct,192,1200,3204,2900,0,4.65442834820664,5.05498504638672,475,4.28416442871094,1525,4.76996612548828,4.38088989257812,0,NaN
208278119,158,b_1,red,red,X,color_change,no_figure_change,not_first,update,correct,7,1013,3020,3075,0,4.37457877711246,4.97734069824219,75,3.88413238525391,2700,4.49604034423828,4.04840850830078,0,NaN
208278119,159,b_1,blue,red,X,color_change,no_figure_change,not_first,no_update,correct,14,1020,3025,3125,0,4.12510346529777,4.47370910644531,2725,3.78211975097656,200,3.82070159912109,4.23339080810547,0,NaN
208278119,160,b_1,red,red,X,color_change,no_figure_change,not_first,update,correct,5,1012,3018,3025,0,4.19821501614755,4.58746337890625,900,3.82164764404297,2300,4.11502838134766,3.85951232910156,0,NaN
208278119,162,b_1,blue,red,Y,color_change,no_figure_change,not_first,no_update,correct,5,1011,3017,2700,0,4.49402824891817,4.94029998779297,275,4.06496429443359,1775,4.4925537109375,4.11925506591797,0,NaN
208278119,170,b_3,blue,red,X,color_change,figure_change,not_first,no_update,correct,14,1023,3028,3350,0,4.52891600759406,4.84858703613281,2825,4.24888610839844,25,4.24888610839844,4.62480926513672,0,NaN
208278119,173,b_3,red,red,Y,color_change,figure_change,not_first,update,correct,22,1028,3034,2600,0,4.71444643460787,5.49320983886719,975,3.95927429199219,2600,4.60723876953125,3.95927429199219,0,NaN
208278119,179,b_3,blue,red,Y,color_change,figure_change,not_first,no_update,correct,20,1027,3032,3400,0,4.8332454614472,5.34651184082031,1450,4.48135375976563,350,4.67018127441406,4.62144470214844,1,125
208278119,181,b_3,red,red,X,color_change,figure_change,not_first,update,correct,166,1172,3178,3425,0,4.79731429250617,5.11259460449219,1425,4.48200225830078,50,4.74455261230469,4.96353912353516,0,NaN
208278119,183,b_0,blue,red,Y,color_change,figure_change,not_first,no_update,correct,17,1026,3031,2000,0,5.1486804632493,5.66487884521484,100,4.64704895019531,1475,5.50314331054688,5.05672454833984,0,NaN
208278119,184,b_0,red,red,Y,color_change,no_figure_change,not_first,update,correct,6,1015,3020,2925,0,5.03603296112596,5.61685943603516,2750,4.41046905517578,2200,5.14272308349609,5.26424407958984,0,NaN
208278119,186,b_0,blue,red,Y,color_change,figure_change,not_first,no_update,correct,5,1011,3016,2650,0,5.24055267048773,5.85073852539062,2175,4.82463073730469,450,4.97966766357422,5.29319000244141,0,NaN
208278119,187,b_0,red,red,X,color_change,figure_change,not_first,update,correct,15,1022,3028,2675,0,5.11524659615976,5.67337799072266,1100,4.70871734619141,725,5.26897430419922,5.31568908691406,1,275
208278119,188,b_0,blue,red,X,color_change,no_figure_change,not_first,no_update,correct,3,1010,3015,3025,0,5.09177719919305,5.57517242431641,2500,4.74971008300781,1400,5.22483062744141,4.86086273193359,0,NaN
208278119,190,b_0,red,red,Y,color_change,figure_change,not_first,update,correct,24,1030,3035,2250,0,4.90040110493754,5.31551361083984,2175,4.42869567871094,2000,5.01765441894531,5.27693939208984,0,NaN
208278119,194,b_1,blue,red,Y,color_change,figure_change,not_first,no_update,correct,20,1026,3031,2250,0,5.09331621442522,5.67289733886719,2225,4.72463226318359,2000,4.95676422119141,5.21187591552734,1,150
208278119,196,b_1,red,red,Y,color_change,no_figure_change,not_first,update,correct,3470,4477,6482,700,0,5.15345422152815,5.67050170898438,125,4.72748565673828,700,5.16629791259766,4.73764038085938,0,NaN
208278119,199,b_2,blue,red,X,color_change,figure_change,not_first,no_update,correct,3,1010,3015,3125,0,4.72037700184605,5.11551666259766,1825,4.40545654296875,750,4.58242034912109,4.54946136474609,0,NaN
208278119,200,b_2,red,red,Y,color_change,figure_change,not_first,update,correct,16,1025,3030,2950,0,4.67107317740457,4.99916839599609,1825,4.37277984619141,2600,4.63919830322266,4.82644653320312,0,NaN
208278119,205,b_3,blue,red,Y,color_change,no_figure_change,not_first,no_update,correct,20,1026,3031,3250,0,4.75436749374657,5.083984375,2325,4.55238342285156,575,5.00376129150391,4.89051818847656,1,175
208278119,206,b_3,red,red,X,color_change,figure_change,not_first,update,correct,12,1020,3025,3150,0,4.52695565474661,5.13526916503906,2650,4.26507568359375,1025,4.45133209228516,4.98171997070312,1,175
208278119,207,b_3,blue,red,Y,color_change,figure_change,not_first,no_update,correct,17,1025,3029,3250,0,4.81197163096645,5.20485687255859,2825,4.54034423828125,325,4.58111572265625,5.1932373046875,0,NaN
209049931,2,b_0,blue,red,X,color_change,no_figure_change,not_first,no_update,correct,23,1029,3034,2825,0,2.40737319946289,2.52139282226562,1725,2.21942901611328,2125,2.3402099609375,2.31369018554688,0,NaN
209049931,4,b_0,red,red,Y,color_change,figure_change,not_first,update,correct,20,1028,3032,3050,0,2.60715339660645,2.76355743408203,675,2.24598693847656,2300,2.62636566162109,2.27666473388672,0,NaN
209049931,5,b_0,blue,red,X,color_change,figure_change,not_first,no_update,correct,7,1013,3017,3175,0,2.40047332763672,2.52967834472656,1125,2.21753692626953,2150,2.37875366210938,2.22685241699219,0,NaN
209049931,7,b_0,red,red,Y,color_change,figure_change,not_first,update,correct,5,1013,3018,2475,0,2.44779105138297,2.57190704345703,2025,2.22663116455078,550,2.54753112792969,2.46774291992188,1,175
209049931,8,b_0,blue,red,X,color_change,figure_change,not_first,no_update,correct,40,1046,3052,2300,0,2.49119789369645,2.69652557373047,1125,2.29456329345703,1975,2.47513580322266,2.49566650390625,1,175
209049931,13,b_1,blue,red,X,color_change,no_figure_change,not_first,no_update,correct,13,1020,3025,3100,0,2.39888164520264,2.46459197998047,2025,2.28305816650391,1425,2.38600921630859,2.41636657714844,1,225
209049931,16,b_1,red,red,Y,color_change,figure_change,not_first,update,correct,22,1028,3034,2975,0,2.35585800170898,2.49485015869141,1600,2.17450714111328,2375,2.26525115966797,2.28849029541016,0,NaN
209049931,17,b_1,blue,red,Y,color_change,no_figure_change,not_first,no_update,correct,8,1016,3021,3000,0,2.50212371826172,2.67481994628906,2025,2.16176605224609,2500,2.4139404296875,2.16176605224609,0,NaN
209049931,18,b_1,red,red,X,color_change,figure_change,not_first,update,correct,20,1027,3032,2600,0,2.38591953277588,2.58766174316406,850,2.17221832275391,250,2.17359161376953,2.39122772216797,0,NaN
209049931,22,b_2,blue,red,Y,color_change,figure_change,not_first,no_update,correct,17,1024,3030,2775,0,2.3820735168457,2.54769897460938,525,2.11201477050781,2475,2.42866516113281,2.17138671875,0,NaN
209049931,23,b_2,red,red,Y,color_change,no_figure_change,not_first,update,correct,10,1018,3023,1925,0,2.36312737402978,2.59310150146484,1750,2.04341125488281,50,2.21401977539062,2.56850433349609,0,NaN
209049931,25,b_2,blue,red,X,color_change,no_figure_change,not_first,no_update,correct,174,1181,3186,2250,0,2.35191006130642,2.52987670898438,150,2.20273590087891,1400,2.43675994873047,2.38459014892578,0,NaN
209049931,32,b_2,red,red,Y,color_change,no_figure_change,not_first,update,correct,13,1021,3025,1100,0,2.27510244196112,2.41728210449219,325,2.11662292480469,875,2.28614807128906,2.29446411132812,1,150
209049931,33,b_2,blue,red,X,color_change,figure_change,not_first,no_update,correct,72,1079,3085,1250,0,2.41664962768555,2.57740783691406,775,2.26585388183594,25,2.26585388183594,2.44857025146484,0,NaN
209049931,35,b_2,red,red,Y,color_change,figure_change,not_first,update,correct,21,1028,3033,825,0,2.43630796490294,2.53379821777344,150,2.27271270751953,675,2.42529296875,2.33869171142578,0,NaN
209049931,37,b_2,blue,red,Y,color_change,figure_change,not_first,no_update,correct,471,1477,3483,775,0,2.4521233343309,2.64962768554688,200,2.24161529541016,50,2.28359222412109,2.3101806640625,0,NaN
209049931,41,b_3,blue,red,X,color_change,no_figure_change,not_first,no_update,correct,17,1024,0,2100,0,2.70905004228864,3.04782867431641,2075,2.44596099853516,225,2.58899688720703,3.04296112060547,0,NaN
209049931,44,b_3,red,red,X,color_change,figure_change,not_first,update,correct,21,1029,3034,2200,0,2.64175020710806,2.78420257568359,675,2.48738098144531,1575,2.63430786132812,2.51919555664062,0,NaN
209049931,46,b_0,red,blue,X,color_change,figure_change,not_first,no_update,correct,10,1018,3025,3000,0,2.73429878234863,2.93866729736328,1475,2.51428985595703,2200,2.68925476074219,2.63515472412109,0,NaN
209049931,47,b_0,blue,blue,X,color_change,no_figure_change,not_first,update,correct,31,1039,3044,3425,0,2.52159599304199,2.63419342041016,200,2.37405395507812,2325,2.55531311035156,2.506103515625,0,NaN
209049931,48,b_0,red,blue,X,color_change,no_figure_change,not_first,no_update,correct,8,1014,3018,3200,0,2.50837417602539,2.59950256347656,1175,2.40300750732422,25,2.40300750732422,2.44647979736328,0,NaN
209049931,49,b_0,blue,blue,X,color_change,no_figure_change,not_first,update,correct,129,1136,3140,2400,0,2.52210184470894,2.67570495605469,1975,2.28720092773438,500,2.4853515625,2.53974151611328,0,NaN
209049931,56,b_1,red,blue,Y,color_change,no_figure_change,not_first,no_update,correct,42,1049,3054,3250,0,2.48900772094727,2.65747833251953,1325,2.32262420654297,600,2.64105224609375,2.48603820800781,0,NaN
209049931,58,b_1,blue,blue,Y,color_change,no_figure_change,not_first,update,correct,22,1029,3035,2650,0,2.3147673034668,2.56522369384766,2100,2.14128112792969,375,2.33924102783203,2.33542633056641,1,275
209049931,60,b_1,red,blue,Y,color_change,figure_change,not_first,no_update,correct,12,1020,3025,2725,0,2.39256065368652,2.61572265625,975,2.03893280029297,2250,2.43793487548828,2.43776702880859,1,125
209049931,62,b_2,red,blue,X,color_change,figure_change,not_first,no_update,correct,3,1012,3016,2875,0,2.60157646179199,2.77890777587891,900,2.36725616455078,2450,2.60243225097656,2.41294860839844,0,NaN
209049931,66,b_3,red,blue,Y,color_change,figure_change,not_first,no_update,correct,11,1020,3024,3100,0,2.53322608947754,2.74339294433594,75,2.246826171875,1850,2.65010070800781,2.4560546875,0,NaN
209049931,68,b_3,blue,blue,X,color_change,figure_change,not_first,update,correct,2,1010,3016,3500,0,2.69086242675781,2.81276702880859,2300,2.52277374267578,400,2.64453125,2.73258972167969,1,150
209049931,73,b_0,blue,red,X,color_change,figure_change,not_first,no_update,correct,2223,3230,5235,1025,0,2.50317996885718,2.63475799560547,300,2.34822845458984,775,2.60521697998047,2.50247192382812,0,NaN
209049931,76,b_1,blue,red,X,color_change,no_figure_change,not_first,no_update,correct,24,1033,3037,3050,0,2.62368942260742,2.82027435302734,1950,2.43539428710938,1700,2.54771423339844,2.605712890625,0,NaN
209049931,80,b_1,red,red,X,color_change,no_figure_change,not_first,update,correct,17,1023,3029,1700,0,2.17326896778051,2.41819763183594,1425,1.90175628662109,1200,2.32971954345703,2.04731750488281,0,NaN
209049931,81,b_1,blue,red,X,color_change,no_figure_change,not_first,no_update,correct,13,1026,3031,1550,0,2.1456542242141,2.32856750488281,275,1.90911865234375,175,2.20932769775391,2.28619384765625,0,NaN
209049931,84,b_2,blue,red,Y,color_change,no_figure_change,not_first,no_update,correct,3,1010,3015,2975,0,2.75762004852295,3.05709838867188,1950,2.53057098388672,450,2.58457946777344,2.75468444824219,1,200
209049931,85,b_2,red,red,Y,color_change,no_figure_change,not_first,update,correct,14,1021,3027,3075,0,2.72886177062988,2.85872650146484,1175,2.50507354736328,2200,2.82439422607422,2.75730133056641,0,NaN
209049931,88,b_3,blue,red,X,color_change,figure_change,not_first,no_update,correct,20,1028,3034,2825,0,2.47417114257812,2.68865966796875,1575,2.18565368652344,2225,2.46476745605469,2.34562683105469,0,NaN
209049931,89,b_3,red,red,Y,color_change,figure_change,not_first,update,correct,14,1021,3027,3075,0,2.44224685668945,2.57992553710938,750,2.3394775390625,2325,2.35516357421875,2.47129821777344,1,175
209049931,91,b_3,blue,red,X,color_change,no_figure_change,not_first,no_update,correct,12,1019,3024,3100,0,2.49519012451172,2.62465667724609,2125,2.34968566894531,2500,2.516845703125,2.34968566894531,0,NaN
209049931,93,b_3,red,red,Y,color_change,no_figure_change,not_first,update,correct,9,1018,3023,2925,0,2.34095169067383,2.51899719238281,2200,2.16535186767578,1525,2.38652038574219,2.48330688476562,0,NaN
209049931,99,b_0,red,blue,X,color_change,figure_change,not_first,no_update,correct,19,1027,3031,3000,0,2.8506616973877,2.98871612548828,1025,2.7078857421875,450,2.77557373046875,2.89527130126953,0,NaN
209049931,101,b_1,red,blue,Y,color_change,no_figure_change,not_first,no_update,correct,15,1022,3027,2900,0,2.40951103210449,2.55647277832031,975,2.17591857910156,2200,2.44020080566406,2.21316528320312,0,NaN
209049931,102,b_1,blue,blue,Y,color_change,no_figure_change,not_first,update,correct,22,1030,3035,2875,0,2.38004531860352,2.51642608642578,1925,2.18528747558594,2325,2.34787750244141,2.34584808349609,1,350
209049931,103,b_1,red,blue,Y,color_change,no_figure_change,not_first,no_update,correct,15,1022,3027,2950,0,2.48450981140137,2.60019683837891,825,2.3492431640625,1550,2.43674468994141,2.52394104003906,0,NaN
209049931,108,b_2,red,blue,X,color_change,figure_change,not_first,no_update,correct,5,1012,3018,1900,0,2.51824302177925,2.61480712890625,600,2.43972015380859,50,2.51172637939453,2.53385925292969,0,NaN
209049931,110,b_2,blue,blue,Y,color_change,figure_change,not_first,update,correct,20,1026,3031,1075,0,2.76716596429998,2.88085174560547,650,2.55701446533203,50,2.67591857910156,2.86116027832031,0,NaN
209049931,113,b_3,red,blue,X,color_change,no_figure_change,not_first,no_update,correct,21,1030,3035,2575,0,2.4749291229248,2.63936614990234,1300,2.21660614013672,2075,2.42630004882812,2.39705657958984,0,NaN
209049931,116,b_0,red,blue,X,color_change,no_figure_change,not_first,no_update,correct,21,1028,3034,3175,0,2.61692970275879,2.75325775146484,1500,2.36030578613281,2475,2.68979644775391,2.37354278564453,0,NaN
209049931,120,b_0,blue,blue,Y,color_change,figure_change,not_first,update,correct,15,1022,3028,2650,0,2.49865657806396,2.67410278320312,2100,2.35413360595703,1300,2.48470306396484,2.58287048339844,0,NaN
209049931,122,b_0,red,blue,Y,color_change,figure_change,not_first,no_update,correct,14,1022,3027,2300,0,2.37109466221022,2.58088684082031,400,2.14487457275391,1750,2.43976593017578,2.39023590087891,0,NaN
209049931,124,b_0,blue,blue,Y,color_change,no_figure_change,not_first,update,correct,13,1021,3027,2275,0,2.41887958233173,2.57122802734375,1175,2.26505279541016,300,2.38944244384766,2.4305419921875,0,NaN
209049931,125,b_0,red,blue,Y,color_change,no_figure_change,not_first,no_update,correct,21,1028,3035,1650,0,2.32718920351854,2.53024291992188,100,2.10575103759766,1400,2.46586608886719,2.28963470458984,0,NaN
209049931,127,b_1,red,blue,Y,color_change,figure_change,not_first,no_update,correct,14,1022,3027,3100,0,2.51057159423828,2.81920623779297,25,2.23073577880859,1950,2.81920623779297,2.34012603759766,0,NaN
209049931,129,b_1,blue,blue,X,color_change,no_figure_change,not_first,update,correct,22,1030,3035,1200,0,2.26701092720032,2.38105773925781,600,2.14598846435547,925,2.25400543212891,2.166748046875,0,NaN
209049931,131,b_1,red,blue,X,color_change,no_figure_change,not_first,no_update,correct,14,1021,3025,1925,0,2.29932520939754,2.48592376708984,200,2.07035827636719,1525,2.37688446044922,2.30186462402344,0,NaN
209049931,133,b_2,red,blue,Y,color_change,no_figure_change,not_first,no_update,correct,13,1020,3025,3325,0,2.93868728637695,3.11372375488281,1650,2.75942993164062,100,2.83416748046875,2.82956695556641,0,NaN
209049931,134,b_2,blue,blue,X,color_change,figure_change,not_first,update,correct,3,1011,0,1900,0,2.8795885788767,3.08480072021484,1700,2.70953369140625,225,2.82483673095703,2.98963165283203,0,NaN
209049931,135,b_2,red,blue,Y,color_change,figure_change,not_first,no_update,correct,1638,2644,4649,2300,0,2.81490201535432,3.19491577148438,175,2.47611236572266,1300,3.00377655029297,2.84123229980469,0,NaN
209049931,136,b_2,blue,blue,X,color_change,figure_change,not_first,update,correct,23,1029,3035,3350,0,2.8571012878418,3.07677459716797,2075,2.48377227783203,2475,2.84928894042969,2.55501556396484,0,NaN
209049931,139,b_3,red,blue,Y,color_change,no_figure_change,not_first,no_update,correct,23,1030,3036,1800,0,2.23630952835083,2.40387725830078,1800,2.05624389648438,1325,2.30979156494141,2.40387725830078,0,NaN
209049931,140,b_3,blue,blue,Y,color_change,no_figure_change,not_first,update,correct,162,1170,3176,2325,0,2.27682199785786,2.44406890869141,975,2.04388427734375,1675,2.42502593994141,2.27909088134766,0,NaN
209049931,142,b_3,red,blue,Y,color_change,no_figure_change,not_first,no_update,correct,133,1141,3147,1875,0,2.2034331258138,2.5723876953125,1500,1.87740325927734,400,2.09693908691406,2.36004638671875,0,NaN
209049931,148,b_0,red,blue,X,color_change,no_figure_change,not_first,no_update,correct,83,1091,3095,1775,0,2.21095890469021,2.43161773681641,1150,1.99100494384766,1300,2.42206573486328,2.18885803222656,0,NaN
209049931,149,b_0,blue,blue,X,color_change,no_figure_change,not_first,update,correct,12,1020,3025,1825,0,2.25427758203794,2.4117431640625,1475,2.08567047119141,950,2.14036560058594,2.32038879394531,0,NaN
209049931,151,b_0,red,blue,X,color_change,figure_change,not_first,no_update,correct,9,1017,3023,2125,0,2.30454487520106,2.62493133544922,1175,2.01559448242188,2050,2.30484771728516,2.29350280761719,0,NaN
209049931,156,b_1,red,blue,Y,color_change,no_figure_change,not_first,no_update,correct,6,1014,3020,2450,0,2.37984266184797,2.54660797119141,1900,2.20498657226562,2300,2.39088439941406,2.27345275878906,0,NaN
209049931,157,b_1,blue,blue,X,color_change,figure_change,not_first,update,correct,16,1024,3029,2100,0,2.34153209013097,2.52236175537109,1050,2.15131378173828,1450,2.31334686279297,2.39990997314453,1,125
209049931,160,b_2,red,blue,X,color_change,figure_change,not_first,no_update,correct,14,1022,3026,2825,0,2.58608451843262,2.76822662353516,1275,2.33863830566406,1975,2.59443664550781,2.556884765625,0,NaN
209049931,162,b_2,blue,blue,Y,color_change,figure_change,not_first,update,correct,14,1021,3027,2975,0,2.52846893310547,2.75216674804688,1625,2.19481658935547,2325,2.32649993896484,2.34962463378906,0,NaN
209049931,165,b_3,red,blue,X,color_change,figure_change,not_first,no_update,correct,7,1016,3023,1775,0,2.21693742778939,2.52046203613281,825,1.93311309814453,1775,2.21912384033203,1.93311309814453,0,NaN
209049931,168,b_3,blue,blue,Y,color_change,figure_change,not_first,update,correct,82,1089,3096,975,0,2.44873927189754,2.57323455810547,575,2.30892181396484,100,2.31883239746094,2.47466278076172,1,150
209049931,189,b_1,blue,red,X,color_change,no_figure_change,not_first,no_update,correct,3,1010,3015,3350,0,2.67254308326957,2.83034515380859,2175,2.40852355957031,100,2.40852355957031,2.72782897949219,1,275
209049931,190,b_1,red,red,Y,color_change,figure_change,not_first,update,correct,16,1023,3027,3350,0,2.80885543823242,2.89960479736328,1450,2.62274932861328,2475,2.79902648925781,2.69357299804688,0,NaN
209049931,193,b_2,blue,red,X,color_change,figure_change,not_first,no_update,correct,10,1018,3024,225,0,2.55018081665039,2.77072143554688,50,2.40201568603516,75,2.70358276367188,2.52462005615234,0,NaN
209049931,194,b_2,red,red,Y,color_change,figure_change,not_first,update,correct,10,1017,3021,2250,0,2.76281272040473,2.89460754394531,900,2.5797119140625,25,2.5797119140625,2.75356292724609,0,NaN
209049931,195,b_2,blue,red,X,color_change,figure_change,not_first,no_update,correct,21,1030,3034,3525,0,2.89016231536865,2.99386596679688,975,2.75760650634766,250,2.795654296875,2.89674377441406,1,125
209049931,197,b_2,red,red,Y,color_change,no_figure_change,not_first,update,correct,92,1100,3105,2150,0,2.4611755020317,2.77599334716797,75,2.09791564941406,2000,2.55671691894531,2.2109375,0,NaN
209049931,203,b_3,blue,red,Y,color_change,no_figure_change,not_first,no_update,correct,21,1029,3034,2700,0,2.35111347198486,2.52277374267578,1275,2.20708465576172,1825,2.37895202636719,2.4071044921875,0,NaN
209049931,204,b_3,red,red,Y,color_change,no_figure_change,not_first,update,correct,8,1015,3021,2825,0,2.41348091125488,2.51602935791016,2225,2.3135986328125,675,2.39595794677734,2.45294952392578,0,NaN
209049931,207,b_0,blue,red,X,color_change,figure_change,not_first,no_update,correct,22,1029,3034,3525,0,2.82039588928223,3.09158325195312,2500,2.67839050292969,75,2.72221374511719,3.09158325195312,0,NaN
209049931,208,b_0,red,red,X,color_change,no_figure_change,not_first,update,correct,12,1020,3025,3500,0,3.01209705352783,3.16374969482422,2475,2.84320068359375,100,2.91368103027344,3.140625,0,NaN
209049931,212,b_1,blue,red,X,color_change,figure_change,not_first,no_update,correct,123,1131,3137,2150,0,2.65669057561063,2.75554656982422,375,2.52657318115234,25,2.52657318115234,2.64192199707031,0,NaN
209049931,215,b_1,red,red,X,color_change,no_figure_change,not_first,update,correct,11,1019,3023,3525,0,2.7952458190918,2.95592498779297,25,2.66984558105469,650,2.95592498779297,2.83574676513672,0,NaN
209049931,218,b_2,blue,red,Y,color_change,figure_change,not_first,no_update,correct,12,1021,3027,3525,0,2.83728302001953,2.94199371337891,2125,2.70703125,275,2.79209899902344,2.9049072265625,0,NaN
209049931,219,b_2,red,red,Y,color_change,no_figure_change,not_first,update,correct,21,1027,3033,3300,0,2.69979911804199,2.84085845947266,25,2.50734710693359,2450,2.84085845947266,2.53569793701172,0,NaN
209049931,221,b_2,blue,red,Y,color_change,figure_change,not_first,no_update,correct,12,1020,3027,3325,0,2.6052466583252,2.79763031005859,25,2.45691680908203,2450,2.79763031005859,2.47607421875,1,150
209049931,222,b_2,red,red,Y,color_change,no_figure_change,not_first,update,correct,26,1033,3038,3450,0,2.61312911987305,2.73583221435547,1500,2.51301574707031,125,2.52872467041016,2.70577239990234,0,NaN
209154863,7,b_0,red,blue,Y,color_change,figure_change,not_first,no_update,correct,5,1011,3017,3200,0,3.86749793947205,4.21718597412109,1975,3.4739990234375,2650,4.19707489013672,3.74658203125,0,NaN
209154863,12,b_1,red,blue,Y,color_change,no_figure_change,not_first,no_update,correct,22,1029,3033,3525,0,3.73275785303828,3.88237762451172,3075,3.60488128662109,825,3.83644104003906,3.72821807861328,0,NaN
209154863,13,b_1,blue,blue,X,color_change,figure_change,not_first,update,correct,11,1017,3022,3300,0,3.55795629096754,3.94924163818359,3300,3.18157196044922,1175,3.71513366699219,3.94924163818359,0,NaN
209154863,17,b_1,red,blue,X,color_change,no_figure_change,not_first,no_update,correct,7,1014,3020,3500,0,3.66050754376312,3.84473419189453,25,3.53074645996094,1775,3.84473419189453,3.58914184570312,1,200
209154863,18,b_1,blue,blue,Y,color_change,figure_change,not_first,update,correct,15,1022,3027,3525,0,3.62501195651382,3.85504913330078,3350,3.35004425048828,200,3.50939178466797,3.85504913330078,0,NaN
209154863,19,b_1,red,blue,Y,color_change,no_figure_change,not_first,no_update,correct,5,1012,3018,3150,0,3.52925007737528,3.83162689208984,25,3.17789459228516,2350,3.83162689208984,3.69480133056641,1,125
209154863,21,b_1,blue,blue,X,color_change,no_figure_change,not_first,update,correct,202,1210,3215,3475,0,3.49360332204335,3.92116546630859,2850,2.95162200927734,800,3.23766326904297,3.75099945068359,0,NaN
209154863,24,b_2,red,blue,Y,color_change,no_figure_change,not_first,no_update,correct,14,1020,3026,2175,0,3.87674748212442,4.07533264160156,725,3.56895446777344,1950,3.84181976318359,3.60321807861328,0,NaN
209154863,25,b_2,blue,blue,X,color_change,figure_change,not_first,update,correct,22,1030,3037,3350,0,3.68879750949233,3.9527587890625,3125,3.43534851074219,1100,3.60906219482422,3.92244720458984,0,NaN
209154863,28,b_2,red,blue,X,color_change,figure_change,not_first,no_update,correct,11,1018,3023,3525,0,3.47893894252492,3.84262084960938,50,3.15787506103516,2375,3.83443450927734,3.52877807617188,0,NaN
209154863,30,b_2,blue,blue,Y,color_change,no_figure_change,not_first,update,correct,104,1112,3118,1800,0,3.4831434276006,4.05532836914063,825,3.01815032958984,225,3.27129364013672,3.59538269042969,0,NaN
209154863,34,b_3,red,blue,Y,color_change,no_figure_change,not_first,no_update,correct,15,1023,3029,3525,0,4.17564625526542,4.40911865234375,1600,4.00836944580078,425,4.15566253662109,4.30304718017578,0,NaN
209154863,35,b_3,blue,blue,X,color_change,figure_change,not_first,update,correct,3,1010,3017,3500,0,4.51731200716389,4.69528961181641,1900,4.28201293945312,150,4.39375305175781,4.65212249755859,1,150
209154863,37,b_3,red,blue,Y,color_change,figure_change,not_first,no_update,correct,22,1029,3034,2750,0,3.20514335288658,3.59787750244141,100,2.85824584960938,2575,3.57579803466797,3.12788391113281,0,NaN
209154863,38,b_3,blue,blue,X,color_change,figure_change,not_first,update,correct,12,1018,3024,3250,0,3.46711314274715,3.75177764892578,1475,3.14226531982422,300,3.14386749267578,3.58142852783203,0,NaN
209154863,39,b_3,red,blue,X,color_change,no_figure_change,not_first,no_update,correct,23,1030,3035,3525,0,3.85833597894925,4.06420135498047,2275,3.55725860595703,25,3.55725860595703,3.75119781494141,0,NaN
209154863,44,b_0,red,blue,X,color_change,no_figure_change,not_first,no_update,correct,19,1026,3032,3525,0,3.72684046047837,3.95098876953125,1425,3.55117034912109,2175,3.67802429199219,3.85591888427734,0,NaN
209154863,45,b_0,blue,blue,X,color_change,no_figure_change,not_first,update,correct,4,1011,3016,3500,0,3.95848721176831,4.149658203125,1375,3.75677490234375,2000,3.98091125488281,3.87977600097656,0,NaN
209154863,46,b_0,red,blue,X,color_change,no_figure_change,not_first,no_update,correct,16,1023,3028,3525,0,4.02342383541278,4.24355316162109,1100,3.85258483886719,2075,3.96167755126953,4.013427734375,1,200
209154863,49,b_1,red,blue,X,color_change,no_figure_change,not_first,no_update,correct,1253,2259,4265,1025,0,3.22659701392764,3.61289978027344,550,2.86896514892578,750,3.61238861083984,2.98276519775391,0,NaN
209154863,50,b_1,blue,blue,X,color_change,no_figure_change,not_first,update,correct,15,1021,3027,3400,0,3.36227103845397,3.57944488525391,2425,2.89933013916016,425,2.90340423583984,3.51367950439453,0,NaN
209154863,51,b_1,red,blue,Y,color_change,figure_change,not_first,no_update,correct,22,1029,3034,2800,0,3.3113414122995,3.63784027099609,2650,3.05776977539062,1900,3.43366241455078,3.63784027099609,1,175
209154863,53,b_2,red,blue,X,color_change,figure_change,not_first,no_update,correct,3,1012,0,2500,0,3.40246398925781,3.83609008789062,450,2.67311859130859,2275,3.74868011474609,3.05103302001953,0,NaN
209154863,57,b_2,blue,blue,X,color_change,no_figure_change,not_first,update,correct,22,1029,3034,3525,0,3.51662388132579,3.7691650390625,1525,3.09481811523438,425,3.16854095458984,3.54804992675781,1,125
209154863,61,b_3,red,blue,X,color_change,no_figure_change,not_first,no_update,correct,13,1020,3025,3150,0,3.42344992501395,3.83190155029297,25,2.97637939453125,3050,3.83190155029297,3.26324462890625,0,NaN
209154863,62,b_3,blue,blue,X,color_change,no_figure_change,not_first,update,correct,25,1032,3036,3450,0,3.69340680057841,4.01728820800781,1350,3.29866790771484,25,3.29866790771484,3.65557670593262,1,125
209154863,64,b_3,red,blue,Y,color_change,no_figure_change,not_first,no_update,correct,22,1030,3034,3450,0,3.49446863202906,3.81114959716797,25,3.16472625732422,3125,3.81114959716797,3.49011993408203,0,NaN
209154863,65,b_3,blue,blue,X,color_change,figure_change,not_first,update,correct,10,1018,3023,3525,0,3.61287228029166,3.77173614501953,2000,3.36724853515625,275,3.5205078125,3.51000213623047,0,NaN
209154863,68,b_0,red,blue,Y,color_change,no_figure_change,not_first,no_update,correct,19,1026,3030,3525,0,3.85440217203169,4.06058502197266,3350,3.67138671875,1650,3.98190307617188,4.06058502197266,0,NaN
209154863,75,b_1,red,blue,X,color_change,no_figure_change,not_first,no_update,correct,5,1013,3018,3350,0,3.5703819616517,3.76724243164062,25,3.44587707519531,1375,3.76724243164062,3.55077362060547,1,225
209154863,80,b_2,red,blue,Y,color_change,no_figure_change,not_first,no_update,correct,15,1023,3027,3525,0,3.49761609888788,3.69075012207031,3350,3.26602935791016,1750,3.61016082763672,3.69075012207031,0,NaN
209154863,82,b_2,blue,blue,X,color_change,no_figure_change,not_first,update,correct,21,1028,3033,3475,0,3.58922184047414,3.80275726318359,1425,3.41178131103516,575,3.66223907470703,3.50101470947266,0,NaN
209154863,88,b_3,red,blue,X,color_change,no_figure_change,not_first,no_update,correct,4,1011,3016,3350,0,3.74473976021382,3.83663940429688,1425,3.64167785644531,400,3.76127624511719,3.72023010253906,1,125
209154863,89,b_3,blue,blue,X,color_change,no_figure_change,not_first,update,correct,15,1021,3027,3375,0,3.6967641915848,3.99467468261719,3100,3.25681304931641,750,3.63726043701172,3.94963836669922,0,NaN
209154863,90,b_3,red,blue,Y,color_change,figure_change,not_first,no_update,correct,22,1030,3036,3375,0,3.6697258403283,3.84642791748047,175,3.45503234863281,3325,3.83586883544922,3.56539916992188,0,NaN
209154863,92,b_3,blue,blue,X,color_change,figure_change,not_first,update,correct,24,1032,3038,3350,0,3.47314629625918,3.66881561279297,3350,3.28288269042969,2425,3.53632354736328,3.66881561279297,2,200
209154863,93,b_3,red,blue,Y,color_change,figure_change,not_first,no_update,correct,11,1017,3023,3525,0,3.58087323316887,3.70638275146484,2950,3.43032073974609,1750,3.63565826416016,3.57792663574219,0,NaN
209154863,97,b_0,blue,red,Y,color_change,figure_change,not_first,no_update,correct,24,1031,3038,2925,0,3.77229761673232,4.05108642578125,1725,3.52040100097656,2525,3.60536193847656,3.66075134277344,0,NaN
209154863,104,b_1,blue,red,Y,color_change,figure_change,not_first,no_update,correct,11,1019,3025,3525,0,4.20606590384868,4.62578582763672,3125,3.81145477294922,50,3.818603515625,4.48085784912109,0,NaN
209154863,106,b_1,red,red,X,color_change,no_figure_change,not_first,update,correct,9,1015,3021,3300,0,3.62843958536784,4.24226379394531,25,3.30901336669922,2425,4.24226379394531,3.56322479248047,1,200
209154863,108,b_1,blue,red,X,color_change,figure_change,not_first,no_update,correct,8,1015,3021,3525,0,3.6780359638271,3.96830749511719,2150,3.40280914306641,700,3.58381652832031,3.77944946289063,0,NaN
209154863,109,b_1,red,red,X,color_change,no_figure_change,not_first,update,correct,17,1024,3029,3525,0,3.54382987520588,3.70938873291016,1500,3.42825317382812,1800,3.6241455078125,3.56276702880859,1,200
209154863,111,b_2,blue,red,X,color_change,no_figure_change,not_first,no_update,correct,125,1132,3137,3450,0,3.71056946711754,4.06438446044922,3075,3.31192016601562,1025,3.83512115478516,4.01327514648438,0,NaN
209154863,118,b_3,blue,red,Y,color_change,no_figure_change,not_first,no_update,correct,16,1023,3027,3525,0,3.6635856628418,4.02234649658203,2875,3.35866546630859,700,3.42294311523438,3.94883728027344,0,NaN
209154863,119,b_3,red,red,Y,color_change,no_figure_change,not_first,update,correct,9,1018,3023,3525,0,3.5458555648576,3.88965606689453,50,3.28547668457031,2450,3.86151885986328,3.37834167480469,0,NaN
209154863,125,b_0,blue,red,X,color_change,no_figure_change,not_first,no_update,correct,10,1017,3022,3375,0,3.96601514673945,4.34182739257812,2900,3.72017669677734,1050,3.81674194335938,4.23475646972656,0,NaN
209154863,126,b_0,red,red,Y,color_change,figure_change,not_first,update,correct,170,1179,3184,3200,0,3.78035916137695,4.21340179443359,350,3.53137969970703,825,4.20596313476563,3.6878662109375,1,250
209154863,128,b_0,blue,red,X,color_change,figure_change,not_first,no_update,correct,17,1023,3028,3525,0,3.51371602065691,3.65177154541016,100,3.40318298339844,450,3.65177154541016,3.52027893066406,0,NaN
209154863,133,b_1,blue,red,X,color_change,no_figure_change,not_first,no_update,correct,5,1012,3017,3225,0,3.80130321796124,4.21482086181641,2250,3.41305541992188,3025,3.82058715820312,3.44814300537109,0,NaN
209154863,134,b_1,red,red,Y,color_change,figure_change,not_first,update,correct,15,1024,3029,3525,0,3.65029322115102,3.81934356689453,2325,3.41518402099609,50,3.46653747558594,3.68352508544922,0,NaN
209154863,135,b_1,blue,red,X,color_change,figure_change,not_first,no_update,correct,3,1010,3015,3500,0,3.45494700189847,3.69268035888672,800,3.14722442626953,1325,3.55600738525391,3.63725280761719,0,NaN
209154863,136,b_1,red,red,X,color_change,no_figure_change,not_first,update,correct,14,1021,3026,3275,0,3.48164379323712,3.69063568115234,25,3.17633056640625,2725,3.69063568115234,3.46282196044922,1,125
209154863,141,b_2,blue,red,X,color_change,figure_change,not_first,no_update,correct,14,1022,3027,3325,0,3.76737167586142,4.01630401611328,2450,3.57161712646484,2950,3.73045349121094,3.72570037841797,0,NaN
209154863,143,b_2,red,red,X,color_change,figure_change,not_first,update,correct,14,1021,3025,3525,0,3.81206250546584,4.09099578857422,1225,3.54608154296875,2450,3.95307922363281,3.68471527099609,1,150
209154863,144,b_2,blue,red,X,color_change,no_figure_change,not_first,no_update,correct,22,1029,3035,3150,0,3.75263172059547,4.01947021484375,1225,3.41124725341797,2350,3.83447265625,3.78061676025391,0,NaN
209154863,145,b_2,red,red,Y,color_change,figure_change,not_first,update,correct,12,1019,3024,3525,0,3.76766950692703,3.92246246337891,3125,3.62685394287109,325,3.77118682861328,3.89794921875,0,NaN
209154863,147,b_3,blue,red,Y,color_change,figure_change,not_first,no_update,correct,18,1027,3032,3350,0,3.46313206117545,3.68049621582031,3175,3.27287292480469,650,3.46790313720703,3.66146087646484,0,NaN
209154863,151,b_3,red,red,X,color_change,figure_change,not_first,update,correct,16,1023,3028,3525,0,3.35397207914893,3.57925415039062,50,3.11150360107422,2425,3.573486328125,3.42630767822266,0,NaN
209154863,175,b_1,blue,red,X,color_change,no_figure_change,not_first,no_update,correct,339,1345,3351,3450,0,3.86314921592599,4.01359558105469,3300,3.73226928710938,25,3.73226928710938,4.01359558105469,1,175
209154863,176,b_1,red,red,Y,color_change,figure_change,not_first,update,correct,2,1012,3016,3500,0,3.79178044333387,4.01068115234375,100,3.62415313720703,2700,3.94157409667969,3.62434387207031,0,NaN
209154863,177,b_1,blue,red,Y,color_change,no_figure_change,not_first,no_update,correct,13,1021,3027,3525,0,3.57400438678798,3.77329254150391,850,3.38944244384766,2550,3.55117797851562,3.49755859375,0,NaN
209154863,178,b_1,red,red,Y,color_change,no_figure_change,not_first,update,correct,22,1030,3034,3525,0,3.59525839962176,3.82971954345703,3350,3.28427124023438,425,3.45668029785156,3.82971954345703,0,NaN
209154863,179,b_1,blue,red,Y,color_change,no_figure_change,not_first,no_update,correct,13,1020,3025,3525,0,4.01540787540265,4.42440795898438,3300,3.78601837158203,50,3.82321929931641,4.36354064941406,0,NaN
209154863,180,b_1,red,red,X,color_change,figure_change,not_first,update,correct,22,1030,3035,3525,0,4.08895307512426,4.40183258056641,1125,3.79341125488281,3225,4.38925170898438,3.80152893066406,0,NaN
209154863,182,b_2,blue,red,Y,color_change,no_figure_change,not_first,no_update,correct,18,1026,3031,3525,0,3.59418379370846,3.71702575683594,3250,3.47695922851562,100,3.54673767089844,3.67674255371094,0,NaN
209154863,183,b_2,red,red,X,color_change,figure_change,not_first,update,correct,5,1015,3019,3500,0,3.59494764413407,3.74167633056641,1350,3.46410369873047,425,3.67034912109375,3.67514038085938,0,NaN
209154863,184,b_2,blue,red,Y,color_change,figure_change,not_first,no_update,correct,15,1022,3028,3525,0,3.66998558613791,3.93292999267578,3350,3.54927062988281,450,3.64305877685547,3.93292999267578,1,200
209154863,189,b_2,red,red,Y,color_change,figure_change,not_first,update,correct,21,1029,3034,3375,0,3.61099806828285,4.09417724609375,1425,3.20236206054688,2950,3.62710571289062,3.40626525878906,0,NaN
209154863,191,b_3,blue,red,Y,color_change,no_figure_change,not_first,no_update,correct,19,1026,3031,3525,0,3.40360510527198,3.61922454833984,3350,3.19280242919922,575,3.50592041015625,3.61922454833984,1,125
209154863,192,b_3,red,red,X,color_change,figure_change,not_first,update,correct,9,1018,3024,3525,0,3.53117288048588,3.64582824707031,1425,3.42362976074219,2950,3.59217834472656,3.50588226318359,0,NaN
209154863,193,b_3,blue,red,X,color_change,no_figure_change,not_first,no_update,correct,23,1031,3035,3325,0,3.41536735420796,3.70482635498047,1450,3.03564453125,2600,3.53220367431641,3.42169189453125,0,NaN
211335542,2,b_0,red,blue,Y,color_change,figure_change,not_first,no_update,correct,16,1025,3031,3400,0,3.15917580922445,3.29221343994141,50,2.99252319335938,2525,3.2432861328125,3.03392791748047,0,NaN
211335542,3,b_0,blue,blue,X,color_change,figure_change,not_first,update,correct,7,1013,3018,3500,0,3.14848848978678,3.25627136230469,1075,3.02516937255859,100,3.09217834472656,3.22097015380859,0,NaN
211335542,4,b_0,red,blue,Y,color_change,figure_change,not_first,no_update,correct,16,1022,3028,3525,0,3.16923503875732,3.31214141845703,800,3.01055908203125,2175,3.24587249755859,3.24442291259766,1,175
211335542,11,b_1,red,blue,X,color_change,figure_change,not_first,no_update,correct,17,1024,3030,3400,0,2.75475978851318,3.15926361083984,2750,2.38348388671875,100,2.84812164306641,2.51117706298828,0,NaN
211335542,13,b_2,red,blue,Y,color_change,figure_change,not_first,no_update,correct,16,1026,3030,3500,0,2.75311142603556,2.95861053466797,2450,2.49402618408203,100,2.62126159667969,2.61376190185547,0,NaN
211335542,14,b_2,blue,blue,Y,color_change,no_figure_change,not_first,update,correct,6,1012,3019,3275,0,2.78722146352132,3.26406097412109,2425,2.40593719482422,2575,2.616455078125,2.8890380859375,2,175
211335542,15,b_2,red,blue,Y,color_change,no_figure_change,not_first,no_update,correct,15,1022,3028,3525,0,2.85167477925618,3.02653503417969,1350,2.65849304199219,175,2.75788879394531,2.81558227539062,1,150
211335542,16,b_2,blue,blue,Y,color_change,no_figure_change,not_first,update,correct,4,1012,3018,3475,0,2.80092007319133,2.95890808105469,300,2.69069671630859,2425,2.89024353027344,2.81085205078125,0,NaN
211335542,18,b_2,red,blue,X,color_change,figure_change,not_first,no_update,correct,22,1028,3034,3325,0,2.91261876424154,3.26720428466797,2900,2.55646514892578,2775,2.79615783691406,3.26720428466797,0,NaN
211335542,19,b_2,blue,blue,Y,color_change,figure_change,not_first,update,correct,14,1021,3026,3500,0,2.73164688746134,3.20752716064453,2750,2.27254486083984,175,2.75777435302734,3.03887176513672,1,125
211335542,20,b_2,red,blue,X,color_change,figure_change,not_first,no_update,correct,22,1028,3034,3300,0,2.83283818562826,3.51580047607422,2550,2.25115203857422,1775,2.53816223144531,3.03544616699219,2,175
211335542,21,b_2,blue,blue,Y,color_change,figure_change,not_first,update,correct,11,1019,3024,2550,0,2.92296039356905,3.60048675537109,2000,2.27294158935547,1675,2.37519073486328,3.38282012939453,0,NaN
211335542,23,b_2,red,blue,Y,color_change,no_figure_change,not_first,no_update,correct,10,1017,3024,2750,0,2.85867807886622,3.45790863037109,2250,2.50891876220703,475,2.58253479003906,3.28620910644531,0,NaN
211335542,26,b_3,red,blue,X,color_change,figure_change,not_first,no_update,correct,21,1028,3033,3450,0,2.7883999188741,3.00153350830078,1225,2.60723876953125,2900,2.84909057617188,2.97904968261719,1,200
211335542,29,b_3,blue,blue,Y,color_change,figure_change,not_first,update,correct,6,1013,3018,3100,0,2.84500659306844,3.17710113525391,2700,2.46861267089844,2900,2.83631896972656,2.75984191894531,0,NaN
211335542,30,b_3,red,blue,X,color_change,figure_change,not_first,no_update,correct,22,1028,3033,3300,0,2.83086840947469,3.36524963378906,175,2.43680572509766,2275,3.19181823730469,3.04470672607422,2,125
211335542,32,b_3,blue,blue,X,color_change,no_figure_change,not_first,update,correct,16,1022,3028,3500,0,2.8345744450887,3.02183532714844,925,2.55536651611328,2975,2.72008514404297,2.83689880371094,1,125
211335542,34,b_0,red,blue,Y,color_change,no_figure_change,not_first,no_update,correct,11,1018,3023,3300,0,2.98840185801188,3.23893737792969,1000,2.62149810791016,2925,3.12957763671875,2.66600799560547,0,NaN
211335542,37,b_0,blue,blue,X,color_change,figure_change,not_first,update,correct,22,1028,3032,3375,0,2.88763650258382,3.10576629638672,875,2.65436553955078,2525,2.86449432373047,2.84388732910156,1,225
211335542,40,b_0,red,blue,Y,color_change,no_figure_change,not_first,no_update,correct,8,1014,3019,3325,0,2.86456082661947,3.07088470458984,1550,2.63462829589844,2925,2.74343872070312,2.69689178466797,0,NaN
211335542,42,b_0,blue,blue,Y,color_change,figure_change,not_first,update,correct,22,1029,3034,3150,0,2.70159171422323,3.14896392822266,2825,2.36093902587891,2500,2.9039306640625,2.57743072509766,1,175
211335542,43,b_0,red,blue,X,color_change,figure_change,not_first,no_update,correct,18,1024,3028,3275,0,2.67248598734538,3.05988311767578,2100,2.42233276367188,1700,2.59310913085938,2.85730743408203,0,NaN
211335542,44,b_0,blue,blue,Y,color_change,figure_change,not_first,update,correct,7,1016,3020,3225,0,2.78934815724691,3.46308898925781,2850,2.24237060546875,2600,2.80182647705078,3.03282928466797,0,NaN
211335542,45,b_0,red,blue,Y,color_change,no_figure_change,not_first,no_update,correct,15,1022,3026,3400,0,2.78974755605062,3.33139038085938,700,2.40917205810547,2750,2.88262939453125,2.82216644287109,0,NaN
211335542,47,b_1,red,blue,X,color_change,figure_change,not_first,no_update,correct,15,1022,3026,3450,0,2.758220799764,3.02854156494141,2375,2.37501525878906,2950,2.71832275390625,2.83113861083984,1,325
211335542,50,b_1,blue,blue,X,color_change,figure_change,not_first,update,correct,22,1028,3033,3200,0,2.79917291005452,3.02812957763672,325,2.54607391357422,225,2.97407531738281,2.85162353515625,1,250
211335542,51,b_1,red,blue,X,color_change,no_figure_change,not_first,no_update,correct,12,1018,3022,3350,0,2.81827303568522,3.03701019287109,2325,2.60515594482422,2725,2.86536407470703,2.734130859375,1,150
211335542,53,b_1,blue,blue,Y,color_change,no_figure_change,not_first,update,correct,11,1017,3021,3425,0,2.80197410583496,3.08934020996094,1425,2.47358703613281,2325,2.71383666992188,2.83040618896484,1,150
211335542,56,b_2,red,blue,X,color_change,figure_change,not_first,no_update,correct,23,1029,3034,3175,0,2.77629941304525,3.18974304199219,2900,2.32122802734375,2425,2.62431335449219,2.55949401855469,1,175
211335542,57,b_2,blue,blue,X,color_change,no_figure_change,not_first,update,correct,6,1012,3016,3500,0,2.86070105234782,2.96999359130859,1025,2.67243194580078,400,2.90605163574219,2.86445617675781,2,262.5
211335542,58,b_2,red,blue,X,color_change,no_figure_change,not_first,no_update,correct,22,1028,3032,3450,0,2.84170729319255,3.03921508789062,2800,2.61092376708984,2900,2.761962890625,2.84451293945312,1,300
211335542,60,b_2,blue,blue,Y,color_change,no_figure_change,not_first,update,correct,21,1028,3033,3175,0,2.70838289260864,3.03179168701172,2500,2.54290771484375,1050,2.62813568115234,2.98590850830078,1,150
211335542,61,b_2,red,blue,Y,color_change,no_figure_change,not_first,no_update,correct,6,1012,3016,2825,0,2.83812188265616,3.47360229492188,2750,2.29645538330078,2175,2.64582061767578,3.37380218505859,0,NaN
211335542,64,b_3,red,blue,Y,color_change,no_figure_change,not_first,no_update,correct,19,1027,3030,2900,0,2.8095698560405,3.52356719970703,2600,2.19731903076172,275,3.35400390625,3.34351348876953,0,NaN
211335542,65,b_3,blue,blue,Y,color_change,no_figure_change,not_first,update,correct,14,1022,3026,3475,0,2.75438327789307,2.96279907226562,1275,2.4296875,450,2.82842254638672,2.67484283447266,0,NaN
211335542,66,b_3,red,blue,Y,color_change,no_figure_change,not_first,no_update,correct,26,1032,3037,1625,0,3.15091658372145,3.67038726806641,1550,2.39161682128906,100,2.75694274902344,3.27151489257812,0,NaN
211335542,71,b_0,blue,red,X,color_change,figure_change,not_first,no_update,correct,62,1071,3081,3350,0,2.91961294809977,3.04091644287109,1750,2.80316925048828,500,2.85619354248047,2.97586822509766,0,NaN
211335542,72,b_0,red,red,X,color_change,no_figure_change,not_first,update,correct,30,1039,3049,3325,0,2.91960697174072,3.06947326660156,1375,2.73917388916016,350,2.95654296875,2.90901184082031,1,125
211335542,74,b_0,blue,red,Y,color_change,no_figure_change,not_first,no_update,correct,21,1031,3041,3325,0,2.78405122756958,3.00347137451172,2875,2.59459686279297,2450,2.77524566650391,2.74263000488281,2,212.5
211335542,76,b_1,blue,red,Y,color_change,no_figure_change,not_first,no_update,correct,21,1030,3040,3225,0,2.77240864435832,2.99306488037109,2375,2.60243988037109,2500,2.90402984619141,2.76808166503906,1,150
211335542,77,b_1,red,red,Y,color_change,no_figure_change,not_first,update,correct,12,1022,3031,3225,0,2.71287285486857,3.10789489746094,2475,2.44741821289062,2025,2.76702880859375,2.96998596191406,2,212.5
211335542,78,b_1,blue,red,X,color_change,figure_change,not_first,no_update,correct,22,1033,3042,2925,0,2.94520138471554,3.74519348144531,2175,2.12885284423828,2750,2.53970336914062,3.26746368408203,0,NaN
211335542,79,b_1,red,red,X,color_change,no_figure_change,not_first,update,correct,45,1055,3065,3400,0,2.86930316289266,3.16234588623047,200,2.60812377929688,525,3.01327514648438,2.92650604248047,2,225
211335542,81,b_1,blue,red,X,color_change,figure_change,not_first,no_update,correct,9,1018,3028,2900,0,2.83440346553408,3.47351837158203,1000,2.23064422607422,1250,2.62014007568359,2.55524444580078,0,NaN
211335542,85,b_1,red,red,Y,color_change,no_figure_change,not_first,update,correct,5,1015,3025,2275,0,2.81077575683594,3.42018127441406,1875,2.30239868164062,1700,2.74732971191406,3.26699829101562,1,275
211335542,86,b_1,blue,red,X,color_change,figure_change,not_first,no_update,correct,92,1101,3111,1325,0,3.21269024543042,3.67725372314453,400,2.54866027832031,875,2.93323516845703,3.47061157226562,0,NaN
211335542,89,b_1,red,red,Y,color_change,no_figure_change,not_first,update,correct,22,1031,3042,2125,0,3.00054071115893,3.71286010742188,1850,2.35202026367188,600,2.59993743896484,2.64277648925781,0,NaN
211335542,91,b_2,blue,red,Y,color_change,no_figure_change,not_first,no_update,correct,18,1029,3038,3325,0,2.8224448521932,3.19088745117188,2950,2.37270355224609,2875,2.93364715576172,3.19088745117188,0,NaN
211335542,93,b_2,red,red,X,color_change,figure_change,not_first,update,correct,20,1032,3041,2925,0,2.83941049090887,3.37131500244141,2625,2.37211608886719,2650,2.63008880615234,3.08407592773438,1,200
211335542,95,b_2,blue,red,X,color_change,no_figure_change,not_first,no_update,correct,20,1029,3039,1750,0,3.0624550832829,3.54411315917969,1550,2.31969451904297,600,3.2628173828125,3.05027008056641,0,NaN
211335542,96,b_2,red,red,X,color_change,no_figure_change,not_first,update,correct,6,1017,3027,2425,0,2.99485888923566,3.65174102783203,825,2.31884002685547,1800,3.38581085205078,3.07869720458984,0,NaN
211335542,97,b_2,blue,red,Y,color_change,figure_change,not_first,no_update,correct,206,1215,3225,3050,0,2.82552744547526,3.31492614746094,50,2.40946197509766,2225,3.18692779541016,3.19796752929688,1,125
211335542,98,b_2,red,red,Y,color_change,no_figure_change,not_first,update,correct,5,1013,3025,2525,0,3.01889524272844,3.66658020019531,2275,2.33795928955078,525,3.08808135986328,3.21669769287109,0,NaN
211335542,99,b_2,blue,red,Y,color_change,no_figure_change,not_first,no_update,correct,23,1038,3048,2750,0,2.96568483919711,3.63080596923828,175,2.31864929199219,750,3.24542236328125,3.00711822509766,0,NaN
211335542,103,b_2,red,red,X,color_change,no_figure_change,not_first,update,correct,4,1010,3016,825,0,3.175393075654,3.72854614257812,825,2.60865783691406,625,3.20575714111328,3.72854614257812,0,NaN
211335542,107,b_3,blue,red,X,color_change,figure_change,not_first,no_update,correct,24,1032,3037,3400,0,2.78692646026611,2.92917633056641,2150,2.61246490478516,250,2.75479125976562,2.67952728271484,0,NaN
211335542,109,b_3,red,red,X,color_change,figure_change,not_first,update,correct,21,1030,3035,2875,0,2.77533443285071,3.30402374267578,2450,2.34130859375,2475,2.76200866699219,3.13538360595703,1,325
211335542,110,b_3,blue,red,Y,color_change,figure_change,not_first,no_update,correct,258,1265,3270,3275,0,2.77830608820511,3.49847412109375,125,2.28188323974609,250,3.49191284179688,3.04598236083984,0,NaN
211335542,114,b_3,red,red,Y,color_change,figure_change,not_first,update,correct,25,1031,3037,1525,0,3.1518425237937,3.62158203125,175,2.43777465820312,750,3.45372772216797,2.88654327392578,1,150
211335542,115,b_3,blue,red,Y,color_change,no_figure_change,not_first,no_update,correct,44,1052,3058,2400,0,2.76989977410499,3.43740081787109,375,2.1766357421875,450,3.21598815917969,2.84059143066406,0,NaN
211335542,119,b_0,blue,red,X,color_change,figure_change,not_first,no_update,correct,40,1049,3054,3325,0,2.95657126108805,3.10829925537109,2150,2.82973480224609,125,3.00760650634766,2.98697662353516,0,NaN
211335542,125,b_0,red,red,X,color_change,no_figure_change,not_first,update,correct,14,1020,3026,2850,0,2.91120816950212,3.68015289306641,400,2.41532897949219,1850,2.90273284912109,2.67324066162109,0,NaN
211335542,127,b_0,blue,red,Y,color_change,no_figure_change,not_first,no_update,correct,12,1020,3025,2550,0,3.00581760032504,3.75438690185547,575,2.23232269287109,1950,3.02081298828125,2.99429321289062,0,NaN
211335542,129,b_0,red,red,Y,color_change,no_figure_change,not_first,update,correct,810,1818,3823,1650,0,3.08604522249592,3.71837615966797,125,2.33782958984375,800,3.27918243408203,3.10453033447266,1,125
211335542,132,b_1,blue,red,X,color_change,figure_change,not_first,no_update,correct,8,1014,3020,2475,0,2.93301314536971,3.71592712402344,2000,2.29852294921875,1625,2.61566162109375,3.47628784179688,0,NaN
211335542,134,b_1,red,red,X,color_change,no_figure_change,not_first,update,correct,5,1014,3018,2600,0,2.82387277512323,3.39665222167969,1725,2.337646484375,100,2.35044097900391,3.23686218261719,1,225
211335542,140,b_2,blue,red,X,color_change,no_figure_change,not_first,no_update,correct,14,1022,3027,3525,0,2.83860626220703,3.01861572265625,2325,2.64023590087891,775,2.740234375,2.96083831787109,0,NaN
211335542,141,b_2,red,red,X,color_change,no_figure_change,not_first,update,correct,11,1019,3023,3400,0,2.83663326899211,3.01848602294922,750,2.64726257324219,1900,2.95468139648438,2.86766815185547,0,NaN
211335542,142,b_2,blue,red,Y,color_change,figure_change,not_first,no_update,correct,106,1113,3118,3275,0,2.82294514973958,3.31843566894531,2275,2.36669921875,2475,2.75534057617188,2.93437957763672,1,250
211335542,144,b_2,red,red,Y,color_change,no_figure_change,not_first,update,correct,107,1116,3121,2200,0,2.96655444884568,3.64661407470703,1850,2.20801544189453,525,3.27682495117188,3.28475952148438,0,NaN
211335542,147,b_2,blue,red,X,color_change,figure_change,not_first,no_update,correct,6,1013,3018,2600,0,2.83983524867467,3.43504333496094,2375,2.38462066650391,1125,2.57760620117188,3.22748565673828,0,NaN
211335542,148,b_2,red,red,Y,color_change,figure_change,not_first,update,correct,16,1023,3028,1600,0,3.18584717970628,3.704345703125,1500,2.4381103515625,600,3.12060546875,3.37532806396484,0,NaN
211335542,149,b_2,blue,red,X,color_change,figure_change,not_first,no_update,correct,4,1012,3017,2775,0,2.8032477923802,3.40602111816406,2750,2.28191375732422,2650,2.82427978515625,2.33652496337891,1,275
211335542,152,b_2,red,red,Y,color_change,no_figure_change,not_first,update,correct,14,1021,3025,2875,0,2.82709825449976,3.45230865478516,1775,2.27401733398438,1825,2.63698577880859,3.10283660888672,0,NaN
211335542,154,b_3,blue,red,X,color_change,no_figure_change,not_first,no_update,correct,23,1029,3034,3200,0,3.10986073811849,3.27145385742188,2750,2.9576416015625,2325,3.03840637207031,3.21533203125,0,NaN
211335542,157,b_3,red,red,Y,color_change,no_figure_change,not_first,update,correct,159,1166,3171,2150,0,3.05656592790471,3.73798370361328,400,2.3885498046875,875,2.89888000488281,2.5921630859375,0,NaN
211335542,158,b_3,blue,red,Y,color_change,no_figure_change,not_first,no_update,correct,21,1027,3033,3300,0,2.72874759038289,2.98572540283203,50,2.50311279296875,125,2.97062683105469,2.70010375976562,0,NaN
211335542,165,b_0,red,blue,X,color_change,figure_change,not_first,no_update,correct,4,1011,3015,3200,0,2.85240472157796,3.04067230224609,1175,2.62080383300781,2200,2.78028106689453,2.94850158691406,0,NaN
211335542,166,b_0,blue,blue,Y,color_change,figure_change,not_first,update,correct,14,1021,3025,3500,0,3.11491673787435,3.28571319580078,1400,2.94167327880859,125,2.95314788818359,3.06931304931641,0,NaN
211335542,169,b_0,red,blue,X,color_change,figure_change,not_first,no_update,correct,22,1028,3031,3275,0,2.85688908894857,3.05072784423828,2825,2.61675262451172,2750,2.99763488769531,2.73992156982422,0,NaN
211335542,172,b_0,blue,blue,Y,color_change,figure_change,not_first,update,correct,10,1016,3020,3375,0,2.85906511942546,3.40687561035156,125,2.40275573730469,2975,3.28389739990234,3.17536163330078,0,NaN
211335542,173,b_0,red,blue,X,color_change,figure_change,not_first,no_update,correct,21,1028,3032,3450,0,2.7783306757609,3.11601257324219,2375,2.48949432373047,425,2.53774261474609,2.73058319091797,0,NaN
211335542,174,b_0,blue,blue,Y,color_change,figure_change,not_first,update,correct,9,1014,3018,2925,0,2.88993085440943,3.51472473144531,1950,2.55422973632812,775,2.65778350830078,2.75925445556641,1,200
211335542,175,b_0,red,blue,Y,color_change,no_figure_change,not_first,no_update,correct,15,1024,3027,3250,0,2.8590456644694,3.44316101074219,2475,2.36634063720703,2625,2.58624267578125,3.26828765869141,1,125
211335542,179,b_1,red,blue,Y,color_change,figure_change,not_first,no_update,correct,51,1058,3062,2975,0,2.82833823837152,3.50734710693359,2675,2.45148468017578,2500,2.60211181640625,3.32249450683594,1,150
211335542,183,b_2,red,blue,X,color_change,figure_change,not_first,no_update,correct,15,1023,3026,3225,0,2.82741463979085,3.50230407714844,225,2.19709014892578,2525,3.29947662353516,2.44570159912109,1,175
211335542,184,b_2,blue,blue,X,color_change,no_figure_change,not_first,update,correct,4,1011,3015,3300,0,2.76801884969076,3.25106811523438,775,2.36377716064453,25,2.36377716064453,2.83221435546875,0,NaN
211335542,185,b_2,red,blue,X,color_change,no_figure_change,not_first,no_update,correct,16,1023,3026,3225,0,2.73877681096395,2.99050903320312,2475,2.48983001708984,375,2.93241119384766,2.76845550537109,3,183.333333333333
211335542,187,b_2,blue,blue,X,color_change,no_figure_change,not_first,update,correct,14,1021,3024,3225,0,2.73181368509928,3.27883911132812,2525,2.41620635986328,3000,2.65251159667969,2.41620635986328,0,NaN
211335542,189,b_2,red,blue,X,color_change,figure_change,not_first,no_update,correct,12,1019,3024,2850,0,2.84754482068514,3.50759887695312,2250,2.42269897460938,825,2.87873077392578,3.10627746582031,0,NaN
211335542,193,b_2,blue,blue,Y,color_change,no_figure_change,not_first,update,correct,24,1033,3037,3150,0,2.88082383473714,3.49048614501953,600,2.34668731689453,550,2.68881225585938,3.17491912841797,0,NaN
211335542,195,b_3,red,blue,Y,color_change,figure_change,not_first,no_update,correct,20,1029,3033,2625,0,2.83501894968861,3.53182983398438,2250,2.44593811035156,125,2.61804962158203,3.47386932373047,1,150
211335542,198,b_3,blue,blue,X,color_change,figure_change,not_first,update,correct,9,1017,0,1575,0,2.83064209468781,3.60276794433594,1025,2.28092956542969,375,2.64779663085938,3.02229309082031,0,NaN
211335542,199,b_3,red,blue,Y,color_change,figure_change,not_first,no_update,correct,1470,2479,4484,1400,0,3.14617170367325,3.86586761474609,850,2.60080718994141,775,3.2872314453125,3.35382843017578,0,NaN
211335542,200,b_3,blue,blue,X,color_change,figure_change,not_first,update,correct,8,1015,3019,2875,0,2.89852313337655,3.66625213623047,2875,2.16537475585938,325,3.00278472900391,3.18770599365234,0,NaN
211335542,201,b_3,red,blue,Y,color_change,figure_change,not_first,no_update,correct,15,1023,3027,2800,0,3.05483545575823,3.62527465820312,25,2.32946014404297,850,3.62527465820312,2.90544128417969,0,NaN
211335542,202,b_3,blue,blue,X,color_change,figure_change,not_first,update,correct,83,1090,3097,1325,0,2.98755688937205,3.73757934570312,250,2.18400573730469,400,3.08835601806641,3.40488433837891,0,NaN
211335542,203,b_3,red,blue,Y,color_change,figure_change,not_first,no_update,correct,18,1025,3032,950,0,3.21493412898137,3.71058654785156,25,2.72866821289062,825,3.71058654785156,3.26168060302734,0,NaN
211335542,212,b_0,blue,red,X,color_change,figure_change,not_first,no_update,correct,15,1021,3027,3475,0,3.04915777842204,3.25102996826172,1500,2.89108276367188,1925,2.98953247070312,3.04521179199219,2,262.5
211335542,213,b_0,red,red,Y,color_change,figure_change,not_first,update,correct,4,1011,3017,3425,0,3.06235650380452,3.22492980957031,1150,2.86543273925781,2850,3.04591369628906,2.93063354492188,0,NaN
211335542,218,b_0,blue,red,Y,color_change,no_figure_change,not_first,no_update,correct,9,1015,3021,3125,0,2.8452870686849,3.161865234375,1025,2.44953918457031,1500,3.0604248046875,3.03802490234375,1,125
211335542,221,b_1,blue,red,X,color_change,no_figure_change,not_first,no_update,correct,4,1011,3016,3125,0,3.10645459493001,3.34795379638672,1375,2.84510040283203,2975,3.21375274658203,2.91537475585938,0,NaN
211335542,222,b_1,red,red,Y,color_change,figure_change,not_first,update,correct,15,1023,3028,3325,0,2.862189356486,3.05464172363281,2100,2.56773376464844,2875,2.73262023925781,2.65791320800781,0,NaN
211335542,226,b_2,blue,red,Y,color_change,no_figure_change,not_first,no_update,correct,16,1025,3034,3100,0,3.0301931699117,3.21968078613281,1275,2.870361328125,2725,3.0355224609375,2.92546844482422,1,125
211335542,228,b_2,red,red,Y,color_change,figure_change,not_first,update,correct,14,1024,3035,3325,0,2.94533516565959,3.2325439453125,1725,2.60794067382812,2600,3.04983520507812,2.74189758300781,0,NaN
211335542,229,b_2,blue,red,Y,color_change,no_figure_change,not_first,no_update,correct,23,1033,3043,3175,0,3.12288799285889,3.268798828125,2375,2.94020080566406,2750,3.06206512451172,3.0704345703125,0,NaN
211335542,231,b_2,red,red,Y,color_change,figure_change,not_first,update,correct,22,1031,3042,3275,0,2.96249033610026,3.04317474365234,1425,2.83991241455078,400,2.93640899658203,3.02794647216797,1,125
211335542,232,b_2,blue,red,Y,color_change,no_figure_change,not_first,no_update,correct,11,1021,3030,3200,0,2.97917753855387,3.18476867675781,925,2.63397216796875,2725,3.02794647216797,2.67856597900391,0,NaN
211335542,234,b_2,red,red,X,color_change,no_figure_change,not_first,update,correct,10,1018,3029,3400,0,3.16004842122396,3.30266571044922,750,2.96938323974609,2875,3.20928955078125,3.03386688232422,0,NaN
211335542,235,b_2,blue,red,Y,color_change,figure_change,not_first,no_update,correct,27,1036,3046,3325,0,2.95115140279134,3.15467071533203,1400,2.72324371337891,2550,2.94037628173828,2.87342834472656,0,NaN
211335542,238,b_2,red,red,Y,color_change,figure_change,not_first,update,correct,7,1017,3026,2925,0,2.90450480832892,3.57459259033203,1250,2.25527191162109,1700,3.07408905029297,2.88677215576172,1,250
211335542,240,b_3,blue,red,Y,color_change,figure_change,not_first,no_update,correct,19,1029,3039,3375,0,2.94564164479574,3.1934814453125,400,2.6385498046875,2700,2.95852661132812,2.90406799316406,0,NaN
211335542,242,b_3,red,red,Y,color_change,no_figure_change,not_first,update,correct,117,1128,3138,2950,0,2.90875083859227,3.68276214599609,2925,2.19599151611328,675,2.88540649414062,3.05421447753906,0,NaN
211335542,244,b_3,blue,red,X,color_change,figure_change,not_first,no_update,correct,13,1023,3033,3375,0,2.76753660837809,3.11641693115234,2975,2.49713134765625,875,2.8873291015625,2.98700714111328,0,NaN
211335542,247,b_3,red,red,Y,color_change,figure_change,not_first,update,correct,22,1032,3041,2825,0,2.78343361302426,3.47258758544922,2200,2.24907684326172,2775,2.67133331298828,2.50624084472656,0,NaN
211335542,249,b_3,blue,red,X,color_change,no_figure_change,not_first,no_update,correct,25,1036,3046,2875,0,2.81180306138663,3.41747283935547,2250,2.23991394042969,2775,3.01229858398438,2.94635009765625,1,150
211335542,250,b_3,red,red,X,color_change,no_figure_change,not_first,update,correct,14,1027,3036,3475,0,2.82327527999878,3.13813018798828,75,2.47392272949219,275,2.849853515625,2.80711364746094,0,NaN
211335542,251,b_3,blue,red,Y,color_change,figure_change,not_first,no_update,correct,14,1023,3033,2975,0,2.80822416941325,3.49623107910156,1500,2.20230865478516,2300,2.80403137207031,2.70375823974609,1,225
306346313,2,b_0,blue,red,X,color_change,figure_change,not_first,no_update,correct,6,1014,3020,550,0,3.0433103388006,3.55728149414062,325,2.45505523681641,375,2.77045440673828,2.90370941162109,0,NaN
306346313,5,b_0,red,red,Y,color_change,figure_change,not_first,update,correct,18,1027,0,425,0,3.02068777645335,3.37267303466797,100,2.60153198242188,300,3.27725219726562,2.72943115234375,0,NaN
306346313,11,b_0,blue,red,X,color_change,figure_change,not_first,no_update,correct,173,1181,3187,800,0,3.07548260688782,3.54750061035156,450,2.55876159667969,350,2.89485168457031,2.92517852783203,0,NaN
306346313,12,b_0,red,red,Y,color_change,figure_change,not_first,update,correct,344,1351,3357,675,0,2.98074905960648,3.34033966064453,50,2.63661956787109,350,3.01445770263672,3.12766265869141,0,NaN
306346313,13,b_0,blue,red,X,color_change,figure_change,not_first,no_update,correct,288,1298,3304,375,0,2.95774688720703,3.32971954345703,350,2.74938201904297,125,3.23793029785156,2.89134979248047,0,NaN
306346313,14,b_0,red,red,X,color_change,no_figure_change,not_first,update,correct,45,1053,0,150,0,3.06362024943034,3.24412536621094,125,2.77359008789062,25,2.77359008789062,3.13491058349609,0,NaN
306346313,15,b_0,blue,red,X,color_change,no_figure_change,not_first,no_update,correct,1229,2236,4241,300,0,2.93935159536508,3.13623046875,50,2.76615905761719,200,2.85442352294922,2.92620849609375,0,NaN
306346313,18,b_1,blue,red,Y,color_change,no_figure_change,not_first,no_update,correct,239,1248,0,350,0,2.94639260428292,3.26435089111328,350,2.73096466064453,100,2.86473083496094,3.26435089111328,0,NaN
306346313,21,b_1,red,red,X,color_change,no_figure_change,not_first,update,correct,243,1251,3256,150,0,2.9403559366862,3.32968139648438,50,2.76517486572266,125,2.94273376464844,2.81322479248047,0,NaN
306346313,22,b_1,blue,red,X,color_change,no_figure_change,not_first,no_update,correct,50,1059,3063,575,0,3.11471856158713,3.74478912353516,250,2.63755035400391,575,2.80126190185547,2.63755035400391,0,NaN
306346313,23,b_1,red,red,X,color_change,no_figure_change,not_first,update,correct,36,1043,3049,450,0,2.88933436075846,3.29611968994141,50,2.42481994628906,200,2.84723663330078,2.88631439208984,0,NaN
306346313,28,b_2,blue,red,X,color_change,figure_change,not_first,no_update,correct,107,1115,3120,1275,0,2.90994322533701,3.79384613037109,550,2.19816589355469,275,3.48040771484375,2.75240325927734,0,NaN
306346313,29,b_2,red,red,Y,color_change,figure_change,not_first,update,correct,23,1032,3037,1150,0,3.0204671776813,3.54861450195312,450,2.41620635986328,175,2.54345703125,3.24424743652344,0,NaN
306346313,32,b_2,blue,red,Y,color_change,no_figure_change,not_first,no_update,correct,459,1465,3471,325,0,2.97415689321665,3.32512664794922,275,2.36864471435547,75,2.80556488037109,2.93196868896484,0,NaN
306346313,33,b_2,red,red,Y,color_change,no_figure_change,not_first,update,correct,77,1083,3090,600,0,2.97687149047852,3.32496643066406,150,2.55447387695312,450,3.25064849853516,2.76738739013672,0,NaN
306346313,35,b_2,blue,red,Y,color_change,figure_change,not_first,no_update,correct,619,1626,95,75,0,3.06968434651693,3.45513153076172,25,2.78854370117188,75,3.45513153076172,2.78854370117188,0,NaN
306346313,38,b_2,red,red,X,color_change,figure_change,not_first,update,correct,1953,2960,1430,100,0,2.98802757263184,3.29429626464844,25,2.82681274414062,75,3.29429626464844,2.98362731933594,0,NaN
306346313,39,b_2,blue,red,Y,color_change,figure_change,not_first,no_update,correct,1665,2671,1140,150,0,2.96713638305664,3.45793914794922,75,2.41518402099609,100,2.94548034667969,2.99835968017578,0,NaN
306346313,40,b_2,red,red,X,color_change,figure_change,not_first,update,correct,604,1613,77,175,0,2.95241110665458,3.10234832763672,25,2.77962493896484,75,3.10234832763672,3.02663421630859,0,NaN
306346313,41,b_2,blue,red,Y,color_change,figure_change,not_first,no_update,correct,237,1244,3250,175,0,2.94392108917236,3.30479431152344,100,2.74814605712891,50,2.76981353759766,2.82660675048828,0,NaN
306346313,43,b_3,blue,red,Y,color_change,no_figure_change,not_first,no_update,correct,4,1012,3016,875,0,2.96253269740513,3.45638275146484,775,2.39035034179688,875,3.42945098876953,2.39035034179688,0,NaN
306346313,44,b_3,red,red,X,color_change,figure_change,not_first,update,correct,95,1104,3110,2000,0,2.90306399161356,3.43479156494141,1250,2.34099578857422,1000,3.19429016113281,3.30019378662109,0,NaN
306346313,48,b_3,blue,red,X,color_change,figure_change,not_first,no_update,correct,1067,2077,4084,450,0,3.00746875339084,3.436767578125,300,2.57707214355469,375,2.87220764160156,3.04608154296875,0,NaN
306346313,49,b_3,red,red,X,color_change,no_figure_change,not_first,update,correct,28,1038,3044,150,0,2.87377548217773,2.91717529296875,50,2.83000183105469,125,2.86135864257812,2.87688446044922,0,NaN
306346313,50,b_3,blue,red,Y,color_change,figure_change,not_first,no_update,correct,136,1143,0,225,0,2.95724063449436,3.50674438476563,100,2.74800872802734,50,2.83572387695312,2.93228149414062,0,NaN
306346313,51,b_3,red,red,X,color_change,figure_change,not_first,update,correct,699,1707,3713,300,0,2.879028907189,3.04067230224609,75,2.74696350097656,275,2.86921691894531,2.80279541015625,0,NaN
306346313,56,b_0,blue,red,Y,color_change,no_figure_change,not_first,no_update,correct,22,1030,3035,300,0,3.27198219299316,3.39235687255859,150,3.10197448730469,100,3.23573303222656,3.27118682861328,0,NaN
306346313,57,b_0,red,red,X,color_change,figure_change,not_first,update,correct,22,1029,3034,375,0,3.22029978434245,3.34807586669922,125,3.09720611572266,175,3.22223663330078,3.17581176757812,0,NaN
306346313,58,b_0,blue,red,X,color_change,no_figure_change,not_first,no_update,correct,137,1147,3151,825,0,3.26459919322621,3.76131439208984,725,2.75544738769531,675,3.19081115722656,3.20228576660156,0,NaN
306346313,59,b_0,red,red,X,color_change,no_figure_change,not_first,update,correct,16,1023,3028,275,0,3.29981549580892,3.63743591308594,225,2.98001861572266,75,3.55723571777344,3.19937133789062,0,NaN
