participant_id,trial_id,block,border_color,dominant,figure,is_color_change,is_figure_change,is_first,is_update,is_correct,event_fixation,event_stimulus_on,event_stimulus_off,event_Trial_Offset,event_Trial_Onset,trial_mean,trial_max,trial_max_latency,trial_min,trial_min_latency,first_bin,last_bin,valid_blinks,blinks_mean
207280074,5,b_0,blue,red,Y,color_change,no_figure_change,not_first,no_update,correct,228,1235,3239,1875,0,-2.62127068916387,2.44343803357478,600,-10.5771242052624,1400,0,0.0396456698658909,0,NaN
207280074,7,b_0,red,red,X,color_change,no_figure_change,not_first,update,correct,44,1051,3057,1775,0,10.8037239063985,17.6047725577927,1525,-0.921429055657242,175,0,11.9886109416311,1,150
207280074,10,b_0,blue,red,X,color_change,no_figure_change,not_first,no_update,correct,11,1018,3024,2850,0,2.43866351751058,7.83529595030741,600,-5.41249032484191,2475,1.32750470979394,-5.0955832599076,1,275
207280074,11,b_0,red,red,X,color_change,no_figure_change,not_first,update,correct,23,1029,3034,2150,0,2.64341560973377,8.75362781373732,1750,-5.46914737650474,2150,0.699382648328964,-5.46914737650474,0,NaN
207280074,12,b_0,blue,red,X,color_change,no_figure_change,not_first,no_update,correct,56,1062,3067,2400,0,1.78374023829066,10.7143685821167,1700,-12.7338023775333,600,4.52664605897169,3.00710785008805,0,NaN
207280074,13,b_0,red,red,X,color_change,no_figure_change,not_first,update,correct,18,1024,3028,1600,0,6.17968757809454,13.751636861624,1575,-0.759453813012925,100,0.687231979527979,4.74514939173723,0,NaN
207280074,17,b_1,blue,red,X,color_change,no_figure_change,not_first,no_update,correct,9,1016,3021,2725,0,-2.26925420404591,3.31776642552353,875,-9.0059986846738,2100,-1.61182819271079,-3.93047814543434,0,NaN
207280074,18,b_1,red,red,Y,color_change,figure_change,not_first,update,correct,62,1069,3074,2850,0,4.15963182902714,11.9523551257538,1850,-3.82317252537138,375,0.433657523165166,3.13832916605384,0,NaN
207280074,20,b_2,blue,red,X,color_change,figure_change,not_first,no_update,correct,17,1025,3030,2600,0,2.2036413809157,9.50796060570673,500,-6.0011094242672,1950,0.2907372805481,2.20425084666589,0,NaN
207280074,21,b_2,red,red,X,color_change,no_figure_change,not_first,update,correct,130,1136,3141,2500,0,-3.29501786871863,4.93851149353979,1650,-12.5210404702765,1000,-1.88691171547431,-5.38612628262004,0,NaN
207280074,22,b_2,blue,red,Y,color_change,figure_change,not_first,no_update,correct,122,1133,3138,3050,0,-0.0427170834557236,7.81806691745786,2275,-7.33564220457396,825,-1.52042156804204,4.30549750204017,0,NaN
207280074,25,b_2,red,red,X,color_change,no_figure_change,not_first,update,correct,3,1010,3015,2575,0,-5.45371303717058,1.15820877174112,125,-16.6667032540047,2375,0.59556868797074,-14.8018466361236,1,150
207280074,27,b_3,blue,red,Y,color_change,no_figure_change,not_first,no_update,correct,12,1021,3026,2600,0,-1.0856936768996,7.5105539915568,325,-11.9978304017357,2250,-10.1474318820545,-7.6487938809649,1,125
207280074,28,b_3,red,red,X,color_change,figure_change,not_first,update,correct,68,1076,3081,2200,0,9.51356266063514,19.8882815067061,2050,-11.4129918234229,75,-0.646848446830518,14.1953634381271,1,150
207280074,34,b_0,red,blue,Y,color_change,figure_change,not_first,no_update,correct,21,1027,3032,3150,0,1.82906357254295,6.88905464728109,1900,-3.5681531933626,2500,0.496704532948556,-3.5681531933626,0,NaN
207280074,35,b_0,blue,blue,X,color_change,figure_change,not_first,update,correct,6,1013,3019,2750,0,3.4039793809802,10.5459338709095,1725,-3.34179422492558,2500,0.146259924780608,-3.34179422492558,0,NaN
207280074,36,b_0,red,blue,X,color_change,no_figure_change,not_first,no_update,correct,14,1020,3026,2800,0,-2.5301186015696,3.40774052533068,1375,-15.5621993040813,2500,1.66266785584182,-15.5621993040813,1,150
207280074,37,b_0,blue,blue,X,color_change,no_figure_change,not_first,update,correct,6,1012,3017,2775,0,5.59024568937035,19.3730098458505,1725,-8.77040116178371,2450,1.02002478116631,-5.4089558602129,0,NaN
207280074,40,b_0,red,blue,X,color_change,figure_change,not_first,no_update,correct,16,1022,3027,2700,0,0.782176083458964,7.58515166316126,1575,-6.32444852025,2425,-0.951944258928833,-5.86143479431027,1,125
207280074,42,b_1,red,blue,Y,color_change,figure_change,not_first,no_update,correct,49,1059,3065,1475,0,4.41109758240106,14.9389382899774,225,-4.41319119571918,850,5.97871864954533,5.35471782442026,0,NaN
207280074,45,b_1,blue,blue,X,color_change,figure_change,not_first,update,correct,8,1016,3020,2450,0,9.06027179930659,20.6700194594143,1800,-1.36659345475034,2125,1.25051517886489,6.51186085214496,0,NaN
207280074,46,b_1,red,blue,X,color_change,no_figure_change,not_first,no_update,correct,20,1027,3033,2850,0,-2.78747802119343,3.34331062281771,1000,-10.4716006719692,375,-2.8743220994965,-1.0002851795313,0,NaN
207280074,48,b_1,blue,blue,Y,color_change,figure_change,not_first,update,correct,15,1022,3027,3125,0,0.80688470839986,9.17500292500293,2025,-5.82197457197458,1075,-1.08590733590734,1.78595803595803,0,NaN
207280074,49,b_1,red,blue,X,color_change,figure_change,not_first,no_update,correct,5,1012,3016,3025,0,-4.58263293612635,2.78074816800219,1125,-19.3094652834678,2475,-1.49406770638039,-18.9537128334745,0,NaN
207280074,53,b_2,red,blue,Y,color_change,figure_change,not_first,no_update,correct,18,1027,3032,3000,0,3.02673794082581,9.46781081094773,1300,-6.27244682413847,2250,-1.26664674207618,-2.31712011995279,0,NaN
207280074,54,b_2,blue,blue,Y,color_change,no_figure_change,not_first,update,correct,7,1013,3019,2850,0,-0.127669588009251,8.37430767491806,1825,-4.93175652763648,300,-0.565163332203014,-2.5477092046268,0,NaN
207280074,56,b_2,red,blue,X,color_change,figure_change,not_first,no_update,correct,5,1012,3018,2850,0,-4.85753439995352,1.75873008035748,1650,-16.5923987508178,2325,-0.229592781405458,-8.40951452236061,0,NaN
207280074,62,b_3,red,blue,X,color_change,figure_change,not_first,no_update,correct,3,1009,3014,2650,0,2.31363043881748,8.4110587953634,550,-8.37614468407718,1675,-0.318217185723128,1.22199389501826,1,150
207280074,64,b_3,blue,blue,X,color_change,figure_change,not_first,update,correct,23,1030,3035,2650,0,1.50476827258314,8.92788894389481,1500,-7.71641909725874,675,0.569439563737475,3.9963371184819,1,125
207280074,65,b_3,red,blue,X,color_change,no_figure_change,not_first,no_update,correct,116,1125,3129,3175,0,2.25728139902399,8.66152771492099,2150,-5.11525747230476,675,1.89242635918222,4.17716101611539,1,125
207280074,66,b_3,blue,blue,X,color_change,no_figure_change,not_first,update,correct,16,1023,3027,2650,0,2.48016698325546,12.0676656545069,2400,-9.54983153778961,150,0.0660330269123364,-0.157803335967728,0,NaN
207280074,70,b_0,red,blue,X,color_change,figure_change,not_first,no_update,correct,7,1014,3020,1750,0,1.14085211342784,5.85808918608487,600,-7.81046451988855,1525,0.735150702282027,-7.08133372181781,1,200
207280074,74,b_1,red,blue,Y,color_change,no_figure_change,not_first,no_update,correct,22,1028,3034,2300,0,-5.23667476801316,7.42617362173543,225,-13.9171885222918,1800,1.65411425563629,-5.04523295339948,0,NaN
207280074,75,b_1,blue,blue,X,color_change,figure_change,not_first,update,correct,30,1038,3044,2175,0,2.35206767372758,9.96050989825189,1150,-5.47999125300677,1475,4.31792747713561,3.98528447022807,0,NaN
207280074,78,b_2,red,blue,X,color_change,figure_change,not_first,no_update,correct,12,1019,3025,3050,0,-0.265286405593555,7.0563237424453,700,-13.1968283190733,2400,-1.17617734957837,-9.48542857918467,0,NaN
207280074,84,b_2,blue,blue,Y,color_change,no_figure_change,not_first,update,correct,43,1050,0,375,0,-5.2468763488058,3.88647822840045,300,-13.480039243058,175,-7.08010171956833,0.703592887439783,0,NaN
207280074,91,b_3,red,blue,X,color_change,no_figure_change,not_first,no_update,correct,5,1012,3018,1700,0,-3.63873276697071,6.53042048390887,1375,-15.3078673708831,925,5.02448844534366,-4.21241674054878,0,NaN
207280074,94,b_3,blue,blue,X,color_change,figure_change,not_first,update,correct,21,1030,3033,3200,0,2.3933011761841,6.95448540609286,2050,-0.920053218074429,1000,0.86843074728219,2.69469297535497,0,NaN
207280074,96,b_3,red,blue,Y,color_change,no_figure_change,not_first,no_update,correct,22,1029,3033,1975,0,-1.58818800154659,5.19091818841179,225,-9.36229010016434,1725,2.19884136208812,-5.42870520836202,0,NaN
207280074,98,b_3,blue,blue,X,color_change,figure_change,not_first,update,correct,21,1028,3034,2375,0,-3.97731722932141,2.35797851691892,1500,-10.6615775489948,1000,0.00325430789007441,-5.13343824602103,0,NaN
207280074,101,b_0,red,blue,Y,color_change,figure_change,not_first,no_update,correct,15,1023,3027,2325,0,-3.58124811849805,5.72015108807625,300,-12.7273670506451,1800,-4.16455655550807,-5.77598154136518,0,NaN
207280074,103,b_0,blue,blue,Y,color_change,no_figure_change,not_first,update,correct,16,1022,3027,2975,0,-0.389784133203748,2.68317513760324,1625,-5.37834133128936,650,-1.07425755377754,2.05517296510602,2,162.5
207280074,106,b_1,red,blue,Y,color_change,no_figure_change,not_first,no_update,correct,37,1044,3050,2525,0,0.20060479663558,4.25824965451589,775,-5.58523052584864,2400,-0.963906396227159,-1.61440524997873,0,NaN
207280074,107,b_1,blue,blue,X,color_change,figure_change,not_first,update,correct,22,1029,3034,2700,0,2.11515187652568,10.447081271242,1675,-6.15991890763819,2150,2.17041321328483,-4.68928507542782,0,NaN
207280074,108,b_1,red,blue,Y,color_change,figure_change,not_first,no_update,correct,11,1017,3023,2200,0,0.681971007428208,7.28396762364386,1025,-10.9191826110087,1925,0.642207064277713,-7.01273964013605,1,150
207280074,110,b_1,blue,blue,Y,color_change,figure_change,not_first,update,correct,9,1015,3021,2725,0,-0.420307735708124,7.64432396873127,1725,-5.77715777367725,875,-0.569434368081815,5.87933403472593,0,NaN
207280074,111,b_1,red,blue,X,color_change,figure_change,not_first,no_update,correct,56,1062,3067,2350,0,-4.44148311983184,4.48200567543914,100,-11.2158434922515,1850,-1.42924707608802,-11.0887649289686,0,NaN
207280074,115,b_1,blue,blue,Y,color_change,figure_change,not_first,update,correct,63,1071,3076,2750,0,-8.22158736027942,5.44296853301749,1850,-22.8679047796118,900,-5.9201722432247,1.85005382600772,0,NaN
207280074,116,b_1,red,blue,X,color_change,figure_change,not_first,no_update,correct,3,1011,3016,2750,0,NaN,NaN,25,NaN,25,NaN,NaN,0,NaN
207280074,122,b_2,red,blue,X,color_change,figure_change,not_first,no_update,correct,21,1028,3034,3100,0,-3.19584961636657,4.98099544968068,950,-18.2570145877195,2300,-0.853858169614739,-13.1828113619811,1,175
207280074,123,b_2,blue,blue,X,color_change,no_figure_change,not_first,update,correct,12,1018,3024,2825,0,-2.00984344270002,9.16655669810076,1925,-12.71887974176,1225,-0.634434034086865,-3.64977211129495,0,NaN
207280074,124,b_2,red,blue,Y,color_change,figure_change,not_first,no_update,correct,88,1095,3099,3100,0,-1.49429326807855,4.72427111917199,325,-9.02394425790615,2500,-0.199679819471626,-9.02394425790615,1,225
207280074,126,b_2,blue,blue,Y,color_change,figure_change,not_first,update,correct,25,1034,3038,3150,0,2.08856219033427,9.56945451443681,50,-4.53096344948182,300,9.56945451443681,2.04130592399881,2,150
207280074,127,b_2,red,blue,X,color_change,figure_change,not_first,no_update,correct,7,1014,3021,2825,0,2.9748672289772,9.66104422756763,2100,-5.63325655577454,1475,3.4995791745489,3.01490434466,1,150
207280074,130,b_3,red,blue,Y,color_change,no_figure_change,not_first,no_update,correct,10,1017,3021,3325,0,0.0672950444865252,4.42206492965009,1975,-6.73992366732374,825,1.01990718696571,0.549180792981545,0,NaN
207280074,131,b_3,blue,blue,X,color_change,figure_change,not_first,update,correct,22,1030,3036,3100,0,5.70318422080325,15.0127875919108,475,-3.56118965855067,575,0.379244913322808,-2.95584155761119,0,NaN
207280074,132,b_3,red,blue,Y,color_change,figure_change,not_first,no_update,correct,8,1017,3023,3250,0,0.69609937933496,5.95031704942173,1350,-3.89080200441731,1700,-0.00047498040704852,0.872064027358888,1,150
207280074,135,b_0,blue,red,X,color_change,no_figure_change,not_first,no_update,correct,23,528,1530,2325,0,2.97652820621049,13.9367119763108,2275,-9.24098522467477,1050,-0.0418672276029355,12.3442348827591,1,200
207280074,136,b_0,red,red,X,color_change,no_figure_change,not_first,update,correct,12,515,1518,2850,0,-2.15132889329849,1.55365614356501,800,-8.03635375762515,1925,-3.7110379186396,-7.9741626085258,1,175
207280074,138,b_0,blue,red,X,color_change,figure_change,not_first,no_update,correct,6,509,1511,3325,0,-7.08335395763961,-0.0731992755719091,100,-16.143443881297,1275,-0.0731992755719091,-3.92272470397678,0,NaN
207280074,139,b_0,red,red,Y,color_change,figure_change,not_first,update,correct,12,515,1518,1900,0,7.26436922651831,13.394674249829,575,1.00013567732057,1800,4.10437739338947,2.88521975572544,0,NaN
207280074,141,b_1,blue,red,Y,color_change,figure_change,not_first,no_update,correct,6,510,1512,2325,0,1.30645321368991,10.8922498495831,1100,-11.1840457370687,275,-3.04939613744878,4.00999852810924,0,NaN
207280074,145,b_1,red,red,X,color_change,no_figure_change,not_first,update,correct,6,510,1513,3225,0,-0.606975447005274,8.01151438430992,1425,-11.6991891871806,375,0.67109438673765,-4.03622770140883,1,125
207280074,147,b_1,blue,red,Y,color_change,figure_change,not_first,no_update,correct,691,1194,2197,2850,0,6.96933011250848,17.4301816777847,1725,-6.27828660903884,1300,-3.76788357178096,11.807179168186,0,NaN
207280074,148,b_1,red,red,Y,color_change,no_figure_change,not_first,update,correct,8,511,1513,2450,0,-4.45408391386845,4.61217817542648,650,-16.0423177283556,1400,0.739519336088591,-15.6493741527819,0,NaN
207280074,149,b_1,blue,red,Y,color_change,no_figure_change,not_first,no_update,correct,2,505,0,975,0,-2.51378861237719,7.50028737734212,900,-12.8379296291265,750,-0.573709675733852,-11.012299750243,1,150
207280074,153,b_2,blue,red,Y,color_change,figure_change,not_first,no_update,correct,11,515,1518,1825,0,8.51299715000244,15.4603819804299,1775,-2.6784392371159,350,-0.58145012584626,15.4603819804299,1,175
207280074,156,b_2,red,red,X,color_change,no_figure_change,not_first,update,correct,4,508,1511,2325,0,-0.357521335007406,7.77011729305737,825,-7.58826193015001,1500,4.25570762916112,-2.52747306252222,0,NaN
207280074,163,b_3,blue,red,Y,color_change,no_figure_change,not_first,no_update,correct,7,510,0,2375,0,0.320051140040278,5.23210834096753,900,-8.07055720246882,2025,0.592888773181969,-0.931577098872921,0,NaN
207280074,164,b_3,red,red,X,color_change,figure_change,not_first,update,correct,344,848,82,1250,0,3.52453845431359,12.2865836410104,250,-6.45297768244777,900,11.6175244317301,3.35538113007053,0,NaN
207280074,167,b_3,blue,red,X,color_change,figure_change,not_first,no_update,correct,11,514,1518,2525,0,-13.2681653933005,3.86565401761936,50,-28.5724322841945,2075,3.86565401761936,-13.319009380829,0,NaN
207280074,168,b_3,red,red,X,color_change,no_figure_change,not_first,update,correct,5,508,1511,3175,0,7.35239818189282,14.4029328255832,1925,-2.49982561158663,2325,1.99345332978528,3.85721335066022,0,NaN
207280074,171,b_3,blue,red,Y,color_change,figure_change,not_first,no_update,correct,35,538,1540,2500,0,8.33763510798925,16.4419890112619,1050,-2.72510769349644,250,-0.606008758979058,7.50529153823015,1,125
207280074,172,b_3,red,red,X,color_change,figure_change,not_first,update,correct,4,507,1509,3000,0,2.19681178344395,9.68262134953119,2400,-9.67059070466303,2450,-2.07464631183943,-7.74108004474375,1,200
207280074,173,b_3,blue,red,Y,color_change,figure_change,not_first,no_update,correct,44,548,1550,2200,0,8.0145204299607,20.84198668419,2200,-6.4666888115423,1625,3.93552952730316,17.6080645860112,0,NaN
207280074,174,b_3,red,red,X,color_change,figure_change,not_first,update,correct,2,506,1509,1950,0,6.36892028192826,13.0854256932811,1650,-0.835129377005856,1575,0.450351249229826,10.2806282152481,0,NaN
207280074,176,b_3,blue,red,X,color_change,figure_change,not_first,no_update,correct,1,504,1508,2750,0,-6.00807984586029,2.65809658949959,175,-18.5545809063576,775,-0.610506365539763,-11.0422020897625,1,125
207280074,178,b_0,blue,red,Y,color_change,figure_change,not_first,no_update,correct,23,1031,3036,2250,0,-4.34450407687552,0.931924872104133,375,-14.052628983155,1450,-1.14758802509046,-2.3521182963956,0,NaN
207280074,179,b_0,red,red,Y,color_change,no_figure_change,not_first,update,correct,12,1019,3025,1625,0,-2.96103469785353,3.43025110513604,1100,-12.5687007246047,425,-1.47062844642939,-10.3771134302511,0,NaN
207280074,183,b_1,blue,red,Y,color_change,figure_change,not_first,no_update,correct,9,1017,3023,2250,0,-4.86820408920484,1.91388611437405,1550,-13.5591150749363,900,-0.986126340416277,-5.32991762743571,0,NaN
207280074,188,b_1,red,red,X,color_change,no_figure_change,not_first,update,correct,18,1025,3030,2100,0,-1.78533936731417,5.01157836235643,600,-6.43710633567989,850,0.975129677658387,-4.11541311596888,0,NaN
207280074,190,b_2,blue,red,X,color_change,no_figure_change,not_first,no_update,correct,17,1023,3029,2175,0,3.23108405981891,8.7845713409335,1225,-3.42748325750217,1950,-2.36005316701601,-0.531670160012268,0,NaN
207280074,193,b_2,red,red,X,color_change,no_figure_change,not_first,update,correct,4,1010,3016,2225,0,-3.55369211373341,1.62521188309536,1575,-12.2440416447135,1925,0.421501336264129,-1.15674461739457,0,NaN
207280074,194,b_2,blue,red,X,color_change,no_figure_change,not_first,no_update,correct,22,1029,3036,2600,0,1.85055392847754,8.38493980885323,1200,-4.86514584096305,2000,-2.52625609885762,-0.629673821872004,0,NaN
207280074,197,b_3,blue,red,Y,color_change,figure_change,not_first,no_update,correct,26,1034,3039,2700,0,1.83743079847329,10.533130066737,2075,-8.47270849445177,2500,0.322442757145012,-8.47270849445177,0,NaN
207280074,199,b_3,red,red,Y,color_change,figure_change,not_first,update,correct,22,1030,3034,1875,0,1.7036161804222,13.6689648675249,1675,-9.22304944230822,725,-2.45686844721452,2.59570258752129,0,NaN
207280074,200,b_3,blue,red,X,color_change,figure_change,not_first,no_update,correct,113,1120,3126,2225,0,-3.17874134843033,4.52646454570285,1675,-15.1210706948354,2225,-2.19839205766742,-15.1210706948354,0,NaN
207280074,203,b_3,red,red,Y,color_change,figure_change,not_first,update,correct,39,1046,3051,2300,0,2.91448659335769,12.1795916677663,1075,-6.03520319586855,1700,-2.42562076486614,10.3159387217043,0,NaN
207280074,205,b_3,blue,red,X,color_change,no_figure_change,not_first,no_update,correct,132,1139,3145,1975,0,3.65067618913017,10.3850312395249,1375,-3.35355480337624,625,2.3033321319747,1.59663081913335,0,NaN
207280074,206,b_3,red,red,X,color_change,no_figure_change,not_first,update,correct,90,1098,3103,2150,0,2.06615553585891,8.00264919483762,2100,-3.86746920691633,1600,0.673463898376482,0.833329104095085,0,NaN
208278119,2,b_0,red,blue,Y,color_change,no_figure_change,not_first,no_update,correct,17,1024,3029,2825,0,-0.022662620496918,10.7084239524431,2625,-7.31835097385337,1200,0,10.7084239524431,1,225
208278119,3,b_0,blue,blue,X,color_change,figure_change,not_first,update,correct,6,1014,3018,2300,0,-7.57175694489365,6.27798331032508,175,-20.4484753570109,1700,0,-12.4578648458035,1,125
208278119,6,b_0,red,blue,Y,color_change,no_figure_change,not_first,no_update,correct,17,1024,3028,2300,0,-1.13288720005175,3.46826839357865,1650,-7.33817221774177,1175,-1.79692734852406,-7.00374351505231,2,275
208278119,7,b_0,blue,blue,X,color_change,figure_change,not_first,update,correct,2,1010,3015,3450,0,4.32845469144698,15.9494598058964,2850,-6.83149939238568,2000,2.55863894391636,15.9494598058964,0,NaN
208278119,11,b_1,red,blue,X,color_change,no_figure_change,not_first,no_update,correct,14,1021,3026,2875,0,-2.48838626221418,1.91661215983937,1575,-7.70751889992546,1350,0.05584686225383,-1.18147622596901,0,NaN
208278119,12,b_1,blue,blue,Y,color_change,figure_change,not_first,update,correct,4,1012,3017,2350,0,-1.89461580712623,5.08601825251894,300,-8.63870125797968,175,-0.604589848278422,-3.25833739999868,0,NaN
208278119,14,b_1,red,blue,X,color_change,no_figure_change,not_first,no_update,correct,140,1147,3153,3125,0,3.78098513254149,8.70541052670309,2150,-4.11824706211814,2825,-1.61340765678752,-3.02955972143012,1,275
208278119,15,b_1,blue,blue,X,color_change,no_figure_change,not_first,update,correct,14,1021,3026,3075,0,-3.58229831911773,4.3233230310779,2100,-9.66747541049622,700,-2.02534958874872,-8.29569822109916,0,NaN
208278119,16,b_1,red,blue,Y,color_change,figure_change,not_first,no_update,correct,23,1030,3035,3175,0,-3.82936344929497,0.579848601037597,200,-7.38808943420314,1025,0.0751853930418207,-0.979337940134428,1,175
208278119,17,b_1,blue,blue,X,color_change,figure_change,not_first,update,correct,12,1019,3024,2875,0,0.0593059944537861,7.87165907402877,575,-8.51543542511058,2325,0.640911204705887,3.07937116648925,0,NaN
208278119,19,b_2,red,blue,Y,color_change,figure_change,not_first,no_update,correct,6,1016,3021,2525,0,6.26747423493223,14.2931110363217,2475,-2.51849271705849,100,-0.296071753860346,13.0841121495327,0,NaN
208278119,20,b_2,blue,blue,Y,color_change,no_figure_change,not_first,update,correct,17,1023,3029,2875,0,0.753964268932285,12.2101448515518,500,-8.90835994991957,2650,0.370150555854991,-5.05711643279723,0,NaN
208278119,21,b_2,red,blue,X,color_change,figure_change,not_first,no_update,correct,6,1014,3018,2925,0,1.32721662383584,11.8541499679168,2000,-5.6846685491694,2675,2.13628772477148,-4.53550649333815,1,275
208278119,24,b_3,red,blue,Y,color_change,no_figure_change,not_first,no_update,correct,21,1027,3032,2925,0,0.404506406781136,5.90500838264192,325,-5.92905246637653,2450,2.87851398819217,0.996955144668874,2,187.5
208278119,25,b_3,blue,blue,X,color_change,figure_change,not_first,update,correct,8,1016,3022,2475,0,-4.88747094472053,5.83166420196801,850,-15.4105023201446,1550,0.364193024382843,-2.26232297327934,1,125
208278119,26,b_3,red,blue,X,color_change,no_figure_change,not_first,no_update,correct,22,1028,3034,2725,0,-1.44147345716654,10.527470683524,2650,-12.5419229370903,1750,1.45942375995233,10.527470683524,0,NaN
208278119,28,b_3,blue,blue,Y,color_change,figure_change,not_first,update,correct,16,1024,3028,2175,0,1.99041323326747,8.21473384798124,700,-3.4219685971544,200,-2.05865725356094,1.11097760119449,0,NaN
208278119,30,b_3,red,blue,Y,color_change,figure_change,not_first,no_update,correct,22,1029,3033,2750,0,-6.76046215956163,4.27839686947341,1250,-15.3956541185358,2625,-8.2010377139317,-11.015003073947,0,NaN
208278119,35,b_0,red,blue,X,color_change,figure_change,not_first,no_update,correct,219,1225,3230,2800,0,-3.76243889608392,5.36036769628866,400,-13.0052657293307,1875,-3.11836129055607,-9.23167399525902,1,125
208278119,39,b_1,red,blue,X,color_change,figure_change,not_first,no_update,correct,21,1031,3035,3275,0,-5.67831181982681,-0.594666798594943,1775,-12.1676149013011,2800,-1.23306782763568,-11.9659624993816,0,NaN
208278119,41,b_1,blue,blue,X,color_change,figure_change,not_first,update,correct,20,1028,3033,2600,0,6.64758897854959,14.2150166685317,1925,-3.74498307811514,50,-3.74498307811514,10.2426490614318,0,NaN
208278119,42,b_1,red,blue,Y,color_change,figure_change,not_first,no_update,correct,7,1014,0,1500,0,-4.5695947997659,-0.172780385744019,100,-8.74363167376042,1425,-0.172780385744019,-5.16830509050671,0,NaN
208278119,46,b_1,blue,blue,Y,color_change,no_figure_change,not_first,update,correct,3,1011,3016,2725,0,2.12657463630901,11.2785155396739,1775,-4.34293139467803,50,-4.34293139467803,-3.14228691874413,0,NaN
208278119,49,b_2,red,blue,X,color_change,figure_change,not_first,no_update,correct,230,1240,3244,3000,0,-3.13633217050779,3.92084621096859,325,-8.62838151271089,2450,-4.56111682743428,-5.18802461052113,1,200
208278119,51,b_2,blue,blue,X,color_change,figure_change,not_first,update,correct,5,1012,3017,2425,0,12.2354045094059,23.8061763136293,1675,0.259971838170216,50,0.259971838170216,11.8922649269486,0,NaN
208278119,56,b_3,red,blue,Y,color_change,no_figure_change,not_first,no_update,correct,21,1029,3034,2950,0,2.97442747601372,10.7724323401349,2275,-5.15965166908563,200,1.11798855971998,-2.29275164347307,0,NaN
208278119,58,b_3,blue,blue,X,color_change,no_figure_change,not_first,update,correct,168,1176,3181,2825,0,5.30441939686063,16.9520620309793,500,-4.56699663723832,2650,2.1023800947047,1.353959344996,0,NaN
208278119,59,b_3,red,blue,X,color_change,no_figure_change,not_first,no_update,correct,6,1013,3018,3150,0,-4.396576539663,5.80287682061125,300,-16.8295352044143,2825,-1.1816543545617,-14.44622453356,0,NaN
208278119,60,b_3,blue,blue,Y,color_change,figure_change,not_first,update,correct,16,1023,3028,2925,0,7.00856884366988,22.1156335651599,1650,-1.94582578185681,550,-0.42295708380577,7.48734476693838,0,NaN
208278119,64,b_3,red,blue,Y,color_change,figure_change,not_first,no_update,correct,14,1020,3026,2950,0,9.63422896404307,22.4785045455547,1825,0.137859451487699,100,0.666654644040079,15.6021632712765,1,125
208278119,65,b_3,blue,blue,X,color_change,figure_change,not_first,update,correct,22,1030,3034,3025,0,-3.96582516880182,7.99631711842417,1750,-12.0223762956349,2850,0.3147538467977,-12.0223762956349,0,NaN
208278119,66,b_3,red,blue,Y,color_change,figure_change,not_first,no_update,correct,11,1019,3024,3050,0,1.86724749131964,14.7885264122614,600,-9.81865335491294,2550,1.00871633874773,-3.09010783300509,0,NaN
208278119,68,b_0,red,blue,Y,color_change,figure_change,not_first,no_update,correct,2,1011,3015,1775,0,6.70341751383846,19.7076768420738,350,-9.76235265234081,125,-1.14842425509185,-0.991496717128996,0,NaN
208278119,69,b_0,blue,blue,Y,color_change,no_figure_change,not_first,update,correct,16,1022,3029,2025,0,-0.609272955733996,12.3175172150519,425,-12.1661121077176,1700,0.651883101022463,-3.21250580305366,0,NaN
208278119,70,b_0,red,blue,X,color_change,figure_change,not_first,no_update,correct,3,1009,3014,2375,0,2.89809778788898,13.0386742170222,2000,-3.76608097606595,1775,4.92725599599297,-0.428326813025535,0,NaN
208278119,72,b_0,blue,blue,Y,color_change,no_figure_change,not_first,update,correct,22,1030,3036,3100,0,2.64799259490327,11.8623964115582,1275,-3.3015344297628,2825,0.602680484873503,-3.0195254481616,0,NaN
208278119,74,b_0,red,blue,Y,color_change,figure_change,not_first,no_update,correct,22,1030,3035,3075,0,-5.53332686660069,10.2141311017755,2200,-14.0569263032968,1650,-4.85073872027081,-0.789463037013562,0,NaN
208278119,76,b_1,red,blue,Y,color_change,figure_change,not_first,no_update,correct,14,1023,3028,2750,0,1.84945758829801,11.7989425326521,2275,-3.1300082608446,2500,-0.0503178543199141,-2.18288360925612,0,NaN
208278119,77,b_1,blue,blue,X,color_change,figure_change,not_first,update,correct,6,1016,3022,2875,0,7.29460705751848,20.8006228900004,2200,-0.745013459735461,475,-0.482458081675844,2.47063604794805,0,NaN
208278119,79,b_1,red,blue,X,color_change,figure_change,not_first,no_update,correct,250,1257,3264,3100,0,-6.41225774461955,5.61954180809468,2550,-15.2243913658635,75,-14.9889877820138,-13.9546756623013,0,NaN
208278119,81,b_2,red,blue,X,color_change,figure_change,not_first,no_update,correct,131,1139,3144,2750,0,8.53305966036442,25.0894708593362,2000,-0.849651326070031,1225,9.51827344512817,7.60586477274303,1,250
208278119,84,b_2,blue,blue,Y,color_change,figure_change,not_first,update,correct,16,1022,3027,3100,0,2.85062536416198,7.79617988646969,1050,-1.12653473656081,525,0.0463474261520531,-0.144470355392897,1,125
208278119,85,b_2,red,blue,Y,color_change,no_figure_change,not_first,no_update,correct,5,1014,3018,3100,0,6.97828117666665,20.5116215636994,1500,-1.92815996778823,2725,-0.0774987390219195,0.478197526534657,0,NaN
208278119,87,b_2,blue,blue,X,color_change,figure_change,not_first,update,correct,2,1009,3015,2975,0,2.85731029163911,10.654854455371,1375,-2.76219970004423,1675,-0.12886716218722,3.29074271583363,1,225
208278119,89,b_2,red,blue,Y,color_change,no_figure_change,not_first,no_update,correct,23,1030,3035,2800,0,5.08892622785356,17.6903273262229,1175,-3.69950252608351,2750,-0.304097868798507,-3.33868875941232,0,NaN
208278119,90,b_2,blue,blue,Y,color_change,no_figure_change,not_first,update,correct,18,1028,3033,3025,0,11.5519622580797,24.9177744756814,2525,0.549699320854074,100,0.86982537672155,11.8670030815873,1,125
208278119,92,b_2,red,blue,X,color_change,figure_change,not_first,no_update,correct,206,1213,3218,3200,0,-2.66359236694156,7.6831258336649,1350,-9.29270160887467,2850,-8.38616497494404,-9.29270160887467,0,NaN
208278119,94,b_2,blue,blue,X,color_change,figure_change,not_first,update,correct,9,1017,3022,2700,0,5.03900799372388,13.7433495755781,2000,0.242964085316729,75,0.292896074503872,0.518833542818101,1,250
208278119,97,b_3,red,blue,X,color_change,no_figure_change,not_first,no_update,correct,4,1010,3016,3050,0,-11.1907746475962,-2.17278173429163,200,-20.1182583325821,2750,-2.95871202497931,-18.7434949721769,0,NaN
208278119,98,b_3,blue,blue,X,color_change,no_figure_change,not_first,update,correct,13,1020,3026,2550,0,7.93580206082357,19.2741455507857,2475,-0.928465600425483,75,0.919601362559987,19.2741455507857,0,NaN
208278119,100,b_0,blue,red,X,color_change,no_figure_change,not_first,no_update,correct,19,1026,3032,3100,0,1.49116811856167,6.96295487428681,2125,-5.97690480740357,2625,0.687759911914313,-1.4617855550399,0,NaN
208278119,102,b_0,red,red,Y,color_change,figure_change,not_first,update,correct,16,1024,3029,3000,0,2.29799367088649,6.73073356036831,2350,-2.21692968593496,2050,1.63969698993182,-1.44604951736521,1,200
208278119,103,b_0,blue,red,Y,color_change,no_figure_change,not_first,no_update,correct,6,1012,3017,3125,0,0.934806607839183,5.6418756879832,2275,-2.5907678397833,1150,-0.0665241848490297,4.29613920828869,0,NaN
208278119,105,b_0,red,red,X,color_change,no_figure_change,not_first,update,correct,7,1016,3021,2875,0,-3.31003676023657,9.10943550030568,175,-12.7678204432962,2450,3.30624186133265,-7.38464248582966,0,NaN
208278119,107,b_0,blue,red,Y,color_change,no_figure_change,not_first,no_update,correct,3,1010,3016,2975,0,2.15848353763962,10.6003218565749,2175,-3.64183158034371,1100,-0.527642313317955,5.50507395370431,0,NaN
208278119,109,b_0,red,red,X,color_change,figure_change,not_first,update,correct,30,1037,3043,3525,0,-0.0474849867477706,6.45865682384166,2800,-3.38381963650559,1775,0.139591055716181,2.64473640642781,1,275
208278119,110,b_0,blue,red,Y,color_change,figure_change,not_first,no_update,correct,10,1017,3021,3300,0,1.82654575989678,9.02536554854441,1775,-4.22067876716109,2375,1.3290697849439,6.58246604575399,0,NaN
208278119,111,b_0,red,red,Y,color_change,no_figure_change,not_first,update,correct,23,1030,3035,3100,0,3.10219515268505,12.6416810162998,800,-4.88544497693685,175,0.107017143489415,-1.97264233798745,0,NaN
208278119,117,b_1,blue,red,Y,color_change,no_figure_change,not_first,no_update,correct,11,1019,3024,3075,0,0.575934331263878,8.30330294496683,2750,-3.9409415620575,2050,1.73400633223554,7.84805599790565,1,275
208278119,119,b_1,red,red,Y,color_change,figure_change,not_first,update,correct,14,1021,3026,3075,0,-2.83331440642876,3.22312603060256,75,-7.53493685112342,2100,-0.714121212679515,-3.8475214871998,0,NaN
208278119,122,b_1,blue,red,Y,color_change,figure_change,not_first,no_update,correct,9,1015,3020,3000,0,1.02579586502957,8.03917658268517,50,-10.2890233183393,2625,8.03917658268517,-5.28078766794448,1,250
208278119,123,b_1,red,red,Y,color_change,no_figure_change,not_first,update,correct,25,1035,3039,3100,0,2.26273402618199,8.27939090059006,2725,-3.61743462418987,2325,-0.64247251152743,3.73956082932965,0,NaN
208278119,126,b_1,blue,red,X,color_change,figure_change,not_first,no_update,correct,26,1034,3039,2850,0,1.57974184788987,8.05895994685569,1650,-6.89384265944285,2450,-2.8708267201292,3.24395065853591,0,NaN
208278119,128,b_2,blue,red,Y,color_change,no_figure_change,not_first,no_update,correct,22,1029,3035,3000,0,-3.3542757377047,4.42167857270388,2000,-10.4055194396363,550,0.414784911376614,-5.75304980613927,1,200
208278119,130,b_2,red,red,X,color_change,figure_change,not_first,update,correct,29,1039,3044,3100,0,1.29384003602038,8.53759272435819,1150,-9.46381398696339,2475,0.124518487621756,-4.56261092164127,0,NaN
208278119,134,b_3,blue,red,Y,color_change,no_figure_change,not_first,no_update,correct,21,1027,3033,3050,0,2.46201654532717,9.26867401281885,1750,-3.72445887881779,1400,1.22806086114382,9.12789005303655,1,275
208278119,135,b_3,red,red,X,color_change,figure_change,not_first,update,correct,8,1015,3021,3050,0,-2.70669833755792,5.47897716955281,2100,-8.15362633049213,925,-2.20270619762177,-2.22469637153978,2,175
208278119,136,b_3,blue,red,X,color_change,no_figure_change,not_first,no_update,correct,17,1024,3029,3025,0,-4.79538562304123,3.44981365272513,100,-13.6890764333,2650,3.37748580144319,-12.3006065421104,0,NaN
208278119,137,b_3,red,red,Y,color_change,figure_change,not_first,update,correct,7,1013,3018,3300,0,3.03986717934108,8.64536868445308,2125,-2.99907010352027,325,-1.1819743775544,0.839985959178975,0,NaN
208278119,139,b_0,blue,red,X,color_change,figure_change,not_first,no_update,correct,2,1011,3015,2925,0,-0.166145767204537,7.83924658986501,2300,-4.87401936532618,2075,0.612587462011447,-1.27164463919712,1,325
208278119,141,b_0,red,red,X,color_change,no_figure_change,not_first,update,correct,22,1029,3034,3300,0,-3.48652790397581,1.17635893011217,2775,-8.02881794650561,1875,-0.286453839516824,-1.14171699741156,0,NaN
208278119,143,b_0,blue,red,X,color_change,figure_change,not_first,no_update,correct,23,1030,3034,3525,0,6.21763285318343,15.2896763418745,2375,-2.85249818299907,75,-1.64051989422737,9.61290147988926,0,NaN
208278119,145,b_0,red,red,X,color_change,figure_change,not_first,update,correct,21,1028,3033,3300,0,-1.27738392387251,5.70964278262817,150,-5.45622013505697,1825,3.2512395488602,-1.17856797545159,1,150
208278119,146,b_0,blue,red,X,color_change,no_figure_change,not_first,no_update,correct,9,1015,3020,2575,0,-4.04357755172361,7.97552131319364,2250,-13.731224695073,1250,-2.36013084601926,-0.213174199328861,1,125
208278119,149,b_1,blue,red,X,color_change,figure_change,not_first,no_update,correct,2,1010,3017,2650,0,5.09223740566197,17.4381965047697,1550,-3.5965058970972,1250,-1.7385961582906,2.54241268970389,0,NaN
208278119,151,b_1,red,red,Y,color_change,figure_change,not_first,update,correct,21,1028,3033,3025,0,7.36816602386782,18.312125707579,2225,-1.04337144752525,200,0.850006014193497,11.0156332581255,0,NaN
208278119,153,b_1,blue,red,X,color_change,no_figure_change,not_first,no_update,correct,192,1200,3204,2900,0,-2.44362816047765,5.97528186574409,475,-10.1845942716756,1525,-0.0507030449017805,-8.15679236863193,0,NaN
208278119,158,b_1,red,red,X,color_change,no_figure_change,not_first,update,correct,7,1013,3020,3075,0,-2.72543035357459,10.7049829884355,75,-13.6099303416737,2700,3.83655322795497,-9.95613476892271,0,NaN
208278119,159,b_1,blue,red,X,color_change,no_figure_change,not_first,no_update,correct,14,1020,3025,3125,0,8.03767789852754,17.0912982964813,2725,-1.00981055818143,200,0.218256464325151,10.8013985986058,0,NaN
208278119,160,b_1,red,red,X,color_change,no_figure_change,not_first,update,correct,5,1012,3018,3025,0,2.03942213594502,11.4807227016955,900,-7.12949486896629,2300,0.251592150028273,-6.20933875946714,0,NaN
208278119,162,b_1,blue,red,Y,color_change,no_figure_change,not_first,no_update,correct,5,1011,3017,2700,0,0.0331257277234867,9.96640898839769,275,-9.517736325843,1775,-2.44562263945873,-8.30927505909844,0,NaN
208278119,170,b_3,blue,red,X,color_change,figure_change,not_first,no_update,correct,14,1023,3028,3350,0,6.64899064576139,14.1143093138927,2825,0.229300964249163,300,0.589861916647209,8.84756962525363,0,NaN
208278119,173,b_3,red,red,Y,color_change,figure_change,not_first,update,correct,22,1028,3034,2600,0,2.3495312834608,19.2299794661191,975,-14.0640524607538,2600,0.0539842352785342,-14.0640524607538,0,NaN
208278119,179,b_3,blue,red,Y,color_change,figure_change,not_first,no_update,correct,20,1027,3032,3400,0,3.52250208867369,14.4818911015634,1450,-4.04325878489861,350,0.511329292797285,-1.04356917648212,1,125
208278119,181,b_3,red,red,X,color_change,figure_change,not_first,update,correct,166,1172,3178,3425,0,1.12188866000437,7.7571485082283,1425,-5.53372204837605,50,-5.53372204837605,4.61553552304471,0,NaN
208278119,183,b_0,blue,red,Y,color_change,figure_change,not_first,no_update,correct,17,1026,3031,2000,0,-6.52161160696956,2.93896643320191,100,-15.5564613174954,1475,0.632600775258283,-8.11206863087612,0,NaN
208278119,184,b_0,red,red,Y,color_change,no_figure_change,not_first,update,correct,6,1015,3020,2925,0,-2.09294338811492,9.2195582931667,2750,-14.2386439330215,2200,0.648155153716175,2.36296985314516,0,NaN
208278119,186,b_0,blue,red,Y,color_change,figure_change,not_first,no_update,correct,5,1011,3016,2650,0,5.28842894778644,17.4925501191215,2175,-3.11339906081707,450,2.78491485303243,6.29604945648427,0,NaN
208278119,187,b_0,red,red,X,color_change,figure_change,not_first,update,correct,15,1022,3028,2675,0,-2.94486946857132,7.67518805702164,1100,-10.6331313394583,725,3.02208900762363,0.886601072956708,1,275
208278119,188,b_0,blue,red,X,color_change,no_figure_change,not_first,no_update,correct,3,1010,3015,3025,0,-2.5690955704891,6.7053235187178,2500,-9.09351093484651,1400,-6.53462397182361,-6.9661185493021,0,NaN
208278119,190,b_0,red,red,Y,color_change,figure_change,not_first,update,correct,24,1030,3035,2250,0,-2.36277987101343,5.93622372178314,2175,-11.7377302432512,2000,3.61151573575967,5.16745378409364,0,NaN
208278119,194,b_1,blue,red,Y,color_change,figure_change,not_first,no_update,correct,20,1026,3031,2250,0,2.78547115500877,14.4475929400501,2225,-4.68313495758765,2000,1.17055286112056,5.14673853650878,1,150
208278119,196,b_1,red,red,Y,color_change,no_figure_change,not_first,update,correct,3470,4477,6482,700,0,-0.257484073644874,9.75947970706943,125,-8.49374664959529,700,8.469970774872,-8.29718957346671,0,NaN
208278119,199,b_2,blue,red,X,color_change,figure_change,not_first,no_update,correct,3,1010,3015,3125,0,3.03720517663761,11.6335096490834,1825,-3.8617977546797,750,-0.478333474852107,-0.719248385437211,0,NaN
208278119,200,b_2,red,red,Y,color_change,figure_change,not_first,update,correct,16,1025,3030,2950,0,0.693157537416756,7.75931678806188,1825,-5.74276932387608,2600,-3.61044552509667,4.03621957376548,0,NaN
208278119,205,b_3,blue,red,Y,color_change,no_figure_change,not_first,no_update,correct,20,1026,3031,3250,0,-5.02823391962064,1.6032556075828,2325,-9.02077142286457,575,-2.04481796988044,-2.26315957996685,1,175
208278119,206,b_3,red,red,X,color_change,figure_change,not_first,update,correct,12,1020,3025,3150,0,1.71393182862517,15.364773029163,2650,-4.18428472263881,1025,-0.078156467190567,11.9152619355723,1,175
208278119,207,b_3,blue,red,Y,color_change,figure_change,not_first,no_update,correct,17,1025,3029,3250,0,5.0838899309681,13.6154855643045,2825,-0.889990274058377,325,-0.0444662056836762,13.3618449978017,0,NaN
209049931,2,b_0,blue,red,X,color_change,no_figure_change,not_first,no_update,correct,23,1029,3034,2825,0,2.86996635543268,7.74216264148976,1725,-5.16111574774399,2125,0,-1.13322205414428,0,NaN
209049931,4,b_0,red,red,Y,color_change,figure_change,not_first,update,correct,20,1028,3032,3050,0,-0.731515237782614,5.22363562948266,675,-14.4830831708996,2300,0,-13.3150129414396,0,NaN
209049931,5,b_0,blue,red,X,color_change,figure_change,not_first,no_update,correct,7,1013,3017,3175,0,0.922292057294046,6.34469575480776,1125,-6.77736154053395,2150,0.432665785726201,-6.38574929118504,0,NaN
209049931,7,b_0,red,red,Y,color_change,figure_change,not_first,update,correct,5,1013,3018,2475,0,-3.95511683155488,0.95684465874038,2025,-12.5965080410889,550,-1.18265400856518,-3.13198167170795,1,175
209049931,8,b_0,blue,red,X,color_change,figure_change,not_first,no_update,correct,40,1046,3052,2300,0,0.655991416413696,8.94455044525478,1125,-7.2954586786922,1975,0.308857934597327,0.829477746508388,1,175
209049931,13,b_1,blue,red,X,color_change,no_figure_change,not_first,no_update,correct,13,1020,3025,3100,0,0.544945649809449,3.29348114561984,2025,-4.31478005621301,1425,0.718170743015747,1.27230693965252,1,225
209049931,16,b_1,red,red,Y,color_change,figure_change,not_first,update,correct,22,1028,3034,2975,0,4.04026115501945,10.135697229136,1600,-4.00591423019019,2375,2.44551397556843,1.02589664916422,0,NaN
209049931,17,b_1,blue,red,Y,color_change,no_figure_change,not_first,no_update,correct,8,1016,3021,3000,0,3.68998454839163,10.807206068268,2025,-10.4465865992415,2500,-1.98577749683945,-10.4465865992415,0,NaN
209049931,18,b_1,red,red,X,color_change,figure_change,not_first,update,correct,20,1027,3032,2600,0,9.86720063245965,19.0500426469917,850,-0.063180728473796,250,4.23661884821531,10.0127414469089,0,NaN
209049931,22,b_2,blue,red,Y,color_change,figure_change,not_first,no_update,correct,17,1024,3030,2775,0,-1.93778326093848,4.90120315395973,525,-13.0380422831653,2475,0.763672918041024,-10.5934093550718,0,NaN
209049931,23,b_2,red,red,Y,color_change,no_figure_change,not_first,update,correct,10,1018,3023,1925,0,6.82331487756732,17.1218762491557,1750,-7.70582640698011,50,-7.70582640698011,16.0109029759197,0,NaN
209049931,25,b_2,blue,red,X,color_change,no_figure_change,not_first,no_update,correct,174,1181,3186,2250,0,-3.5212026933702,3.82133497813025,150,-9.60390242680602,1400,2.20701272108481,-2.14094949450673,0,NaN
209049931,32,b_2,red,red,Y,color_change,no_figure_change,not_first,update,correct,13,1021,3025,1100,0,-0.494390742688175,5.73602536292341,325,-7.41531787084932,875,-3.24044718838645,0.363757717336895,1,150
209049931,33,b_2,blue,red,X,color_change,figure_change,not_first,no_update,correct,72,1079,3085,1250,0,6.79095908540863,13.7499579110408,775,0.163641873463746,1000,3.62604801508468,8.06390787568606,0,NaN
209049931,35,b_2,red,red,Y,color_change,figure_change,not_first,update,correct,21,1028,3033,825,0,0.468364644151399,4.47390275820415,150,-6.29120948258506,675,-1.07899637608215,-3.57075447956512,0,NaN
209049931,37,b_2,blue,red,Y,color_change,figure_change,not_first,no_update,correct,471,1477,3483,775,0,7.6260906848415,16.0289327297329,200,-1.83819721697877,50,-1.83819721697877,1.16432520922774,0,NaN
209049931,41,b_3,blue,red,X,color_change,no_figure_change,not_first,no_update,correct,17,1024,0,2100,0,4.69292100107099,17.7223769320308,2075,-5.52476093651003,225,-2.121145147269,17.5343676789108,0,NaN
209049931,44,b_3,red,red,X,color_change,figure_change,not_first,update,correct,21,1029,3034,2200,0,0.285726585019341,5.69009858551222,675,-5.5774377034557,1575,3.14176156439336,-4.36973621714299,0,NaN
209049931,46,b_0,red,blue,X,color_change,figure_change,not_first,no_update,correct,10,1018,3025,3000,0,1.69188179520505,9.27441089858888,1475,-6.50607400010213,2200,-0.307813643662442,-2.01171110341971,0,NaN
209049931,47,b_0,blue,blue,X,color_change,no_figure_change,not_first,update,correct,31,1039,3044,3425,0,-1.33281882811635,3.08691368345625,200,-7.09342250619532,2325,2.14462723554176,-1.92577553518646,0,NaN
209049931,48,b_0,red,blue,X,color_change,no_figure_change,not_first,no_update,correct,8,1014,3018,3200,0,4.42907390682872,8.17704711922201,1175,0.819133433026323,150,0.824213330285389,1.80907841138912,0,NaN
209049931,49,b_0,blue,blue,X,color_change,no_figure_change,not_first,update,correct,129,1136,3140,2400,0,1.49407827081287,7.65901277013752,1975,-7.97274066797642,500,-3.75030697445972,2.18842092337917,0,NaN
209049931,56,b_1,red,blue,Y,color_change,no_figure_change,not_first,no_update,correct,42,1049,3054,3250,0,-5.81511890413926,0.621952346837375,1325,-12.0568625638418,600,-1.60500103995747,-5.869404451018,0,NaN
209049931,58,b_1,blue,blue,Y,color_change,no_figure_change,not_first,update,correct,22,1029,3035,2650,0,-1.05679292591614,9.6605122484989,2100,-8.46256959189066,375,-7.28158664618455,-0.16307414328999,1,275
209049931,60,b_1,red,blue,Y,color_change,figure_change,not_first,no_update,correct,12,1020,3025,2725,0,-1.8799742247144,7.2925566039212,975,-16.3663959692688,2250,-1.1350514012111,-0.00688478930979386,1,125
209049931,62,b_2,red,blue,X,color_change,figure_change,not_first,no_update,correct,3,1012,3016,2875,0,-0.0332163697803704,6.78117652577205,900,-9.03678035566656,2450,-1.09174274272513,-7.2810211488511,0,NaN
209049931,66,b_3,red,blue,Y,color_change,figure_change,not_first,no_update,correct,11,1020,3024,3100,0,-4.45474279056158,3.52032796513065,75,-15.2173287194044,1850,0.619828762588028,-7.32221307369427,0,NaN
209049931,68,b_3,blue,blue,X,color_change,figure_change,not_first,update,correct,2,1010,3016,3500,0,1.76965836354684,6.36164835672082,2300,-4.60412435376662,400,1.5948116691285,3.32983290251107,1,150
209049931,73,b_0,blue,red,X,color_change,figure_change,not_first,no_update,correct,2223,3230,5235,1025,0,-4.22585011072066,1.1339176679718,300,-9.86438086982497,775,-0.424926274852041,-3.94381953372321,0,NaN
209049931,76,b_1,blue,red,X,color_change,no_figure_change,not_first,no_update,correct,24,1033,3037,3050,0,3.01221441386863,10.6982218043086,1950,-4.40865560260411,1700,-2.51696443009696,2.2764977510526,0,NaN
209049931,80,b_1,red,red,X,color_change,no_figure_change,not_first,update,correct,17,1023,3029,1700,0,-6.81418155598667,3.79779998100609,1425,-18.3697328735497,1200,0.0108068810358901,-12.1217182285885,0,NaN
209049931,81,b_1,blue,red,X,color_change,no_figure_change,not_first,no_update,correct,13,1026,3031,1550,0,-2.92851373358014,5.39710823569226,275,-13.5882533729768,175,-8.31891595097744,3.47916472420498,0,NaN
209049931,84,b_2,blue,red,Y,color_change,no_figure_change,not_first,no_update,correct,3,1010,3015,2975,0,6.7627429368277,18.2822361157849,1950,-2.08964299841189,450,3.41031862701688,6.58153415632029,1,200
209049931,85,b_2,red,red,Y,color_change,no_figure_change,not_first,update,correct,14,1021,3027,3075,0,-3.41657084733106,1.21556244074134,1175,-11.3058111988417,2200,-0.287142861001783,-2.37547913419539,0,NaN
209049931,88,b_3,blue,red,X,color_change,figure_change,not_first,no_update,correct,20,1028,3034,2825,0,0.385378070156843,9.08370529495886,1575,-11.3241421151358,2225,-0.798298778562625,-4.83374708260334,0,NaN
209049931,89,b_3,red,red,Y,color_change,figure_change,not_first,update,correct,14,1021,3027,3075,0,3.73489606197513,9.54336952859771,750,-0.66602741856066,2325,3.96247440847954,4.93106486640579,1,175
209049931,91,b_3,blue,red,X,color_change,no_figure_change,not_first,no_update,correct,12,1019,3024,3100,0,-0.869116521701641,4.28357503152586,2125,-6.64164807449801,2500,0.548064797749532,-6.64164807449801,0,NaN
209049931,93,b_3,red,red,Y,color_change,no_figure_change,not_first,update,correct,9,1018,3023,2925,0,-1.92870696569475,5.55104441730657,2200,-9.26740535667474,1525,-0.202042160316637,4.05554880660857,0,NaN
209049931,99,b_0,red,blue,X,color_change,figure_change,not_first,no_update,correct,19,1027,3031,3000,0,2.732639756554,7.67921935129192,1025,-2.43870258383727,450,2.00357339197362,4.3125343595382,0,NaN
209049931,101,b_1,red,blue,Y,color_change,no_figure_change,not_first,no_update,correct,15,1022,3027,2900,0,-1.27037788039158,4.76485264599395,975,-10.8303474840703,2200,-1.79870060842541,-9.30396883461209,0,NaN
209049931,102,b_1,blue,blue,Y,color_change,no_figure_change,not_first,update,correct,22,1030,3035,2875,0,1.38391988356731,7.17876396060323,1925,-6.92497912205394,2325,1.66763609658771,-0.0864363214521262,1,350
209049931,103,b_1,red,blue,Y,color_change,no_figure_change,not_first,no_update,correct,15,1022,3027,2950,0,2.00020626117687,6.70780772036608,825,-3.5909189107953,1550,0.469020536086092,3.5783949979492,0,NaN
209049931,108,b_2,red,blue,X,color_change,figure_change,not_first,no_update,correct,5,1012,3018,1900,0,0.262862536835807,4.10398004963292,600,-2.86680213962219,50,-2.86680213962219,0.881181712973515,0,NaN
209049931,110,b_2,blue,blue,Y,color_change,figure_change,not_first,update,correct,20,1026,3031,1075,0,3.48924732394829,7.65842309644236,650,-4.44348773158312,50,-4.44348773158312,6.92254617406725,0,NaN
209049931,113,b_3,red,blue,X,color_change,no_figure_change,not_first,no_update,correct,21,1030,3035,2575,0,2.02449309140712,8.7815231746431,1300,-8.64253820514433,2075,-1.46971888560468,-1.20527010879819,0,NaN
209049931,116,b_0,red,blue,X,color_change,no_figure_change,not_first,no_update,correct,21,1028,3034,3175,0,-2.73636961576784,2.35933480259929,1500,-12.2496504111392,2475,0.682159196952554,-11.7575314062691,0,NaN
209049931,120,b_0,blue,blue,Y,color_change,figure_change,not_first,update,correct,15,1022,3028,2650,0,0.567249217437288,7.62262992246872,2100,-5.25493206417441,1300,-2.49973132724342,3.95087126736777,0,NaN
209049931,122,b_0,red,blue,Y,color_change,figure_change,not_first,no_update,correct,14,1022,3027,2300,0,-2.8455966379884,5.7841987585409,400,-12.0868708663633,1750,0.342417561799337,-2.03011398283222,0,NaN
209049931,124,b_0,blue,blue,Y,color_change,no_figure_change,not_first,update,correct,13,1021,3027,2275,0,1.245655356847,7.60786617665372,1175,-5.20580224720536,300,0.807818920843332,1.72004763896561,0,NaN
209049931,125,b_0,red,blue,Y,color_change,no_figure_change,not_first,no_update,correct,21,1028,3035,1650,0,-5.70907118248442,2.61071886041719,100,-14.6039986881432,1400,0.326417207601338,-7.14683514538716,0,NaN
209049931,127,b_1,red,blue,Y,color_change,figure_change,not_first,no_update,correct,14,1022,3027,3100,0,-11.0581539238794,-2.42937440294004,50,-20.8736221953404,1950,-2.42937440294004,-16.9934428270265,0,NaN
209049931,129,b_1,blue,blue,X,color_change,no_figure_change,not_first,update,correct,22,1030,3035,1200,0,0.58927132753003,5.63673473532428,600,-4.79222304586088,925,-2.33823116265059,-3.87121450596912,0,NaN
209049931,131,b_1,red,blue,X,color_change,no_figure_change,not_first,no_update,correct,14,1021,3025,1925,0,-3.3054410241508,4.58748872547289,200,-12.8961331180607,1525,-0.00192589786963993,-3.15622562535511,0,NaN
209049931,133,b_2,red,blue,Y,color_change,no_figure_change,not_first,no_update,correct,13,1020,3025,3325,0,3.72509960159362,9.86378809087972,1650,-2.63701948960913,100,-1.7613330461936,-0.162323678259938,0,NaN
209049931,134,b_2,blue,blue,X,color_change,figure_change,not_first,update,correct,3,1011,0,1900,0,1.96407360292986,9.2027969761544,1700,-4.08175942656047,225,-0.599853615191606,5.83378572180945,0,NaN
209049931,135,b_2,red,blue,Y,color_change,figure_change,not_first,no_update,correct,1638,2644,4649,2300,0,-6.3570001323836,6.36329693607748,175,-17.5666923200012,1300,-2.10103349919103,-5.41132963010939,0,NaN
209049931,136,b_2,blue,blue,X,color_change,figure_change,not_first,update,correct,23,1029,3035,3350,0,0.276955415095306,7.98394481901774,2075,-12.8283466590978,2475,-1.13318088587326,-10.3279584000514,0,NaN
209049931,139,b_3,red,blue,Y,color_change,no_figure_change,not_first,no_update,correct,23,1030,3036,1800,0,-3.2261350324182,4.07334128271275,1800,-10.9770800233857,1325,1.28225031296553,4.07334128271275,0,NaN
209049931,140,b_3,blue,blue,Y,color_change,no_figure_change,not_first,update,correct,162,1170,3176,2325,0,-6.24575469834127,0.785268661928626,975,-15.7170138397309,1675,-12.8339200825539,-6.01787618804919,0,NaN
209049931,142,b_3,red,blue,Y,color_change,no_figure_change,not_first,no_update,correct,133,1141,3147,1875,0,5.14717610096908,22.6734582499545,1500,-10.4693469164999,400,1.22066581771875,12.5472075677642,0,NaN
209049931,148,b_0,red,blue,X,color_change,no_figure_change,not_first,no_update,correct,83,1091,3095,1775,0,-8.83874300882231,0.394374182980798,1150,-17.797237490747,1300,-6.99888176649394,-9.62846298017104,0,NaN
209049931,149,b_0,blue,blue,X,color_change,no_figure_change,not_first,update,correct,12,1020,3025,1825,0,5.395998341306,12.6790284520678,1475,-2.55541059805662,950,2.94251841079054,8.41086183173999,0,NaN
209049931,151,b_0,red,blue,X,color_change,figure_change,not_first,no_update,correct,9,1017,3023,2125,0,-0.0132957741505884,13.8874085156951,1175,-12.5497763992837,2050,1.98112551762487,-0.492219489508471,0,NaN
209049931,156,b_1,red,blue,Y,color_change,no_figure_change,not_first,no_update,correct,6,1014,3020,2450,0,-0.466539007921712,6.51322045580736,1900,-7.77527458851611,2300,-1.9640817160107,-4.91164025553805,0,NaN
209049931,157,b_1,blue,blue,X,color_change,figure_change,not_first,update,correct,16,1024,3029,2100,0,1.23287891744267,9.0351730620187,1050,-7.00427089688834,1450,-0.939597315436245,3.74189931236911,1,125
209049931,160,b_2,red,blue,X,color_change,figure_change,not_first,no_update,correct,14,1022,3026,2825,0,-0.325176257811279,6.69856318627998,1275,-9.8594945568109,1975,-0.290244605332035,-1.44740014938628,0,NaN
209049931,162,b_2,blue,blue,Y,color_change,figure_change,not_first,update,correct,14,1021,3027,2975,0,8.76892715850671,18.2964461744808,1625,-5.66014842312725,2325,0.179380138322742,0.993969285660413,0,NaN
209049931,165,b_3,red,blue,X,color_change,figure_change,not_first,no_update,correct,7,1016,3023,1775,0,-0.0999334497349037,13.5791518402008,825,-12.8884534062194,1775,-3.28502913722861,-12.8884534062194,0,NaN
209049931,168,b_3,blue,blue,Y,color_change,figure_change,not_first,update,correct,82,1089,3096,975,0,5.74968145785113,10.9711318904762,575,-0.427395421374371,100,-0.198069317680819,6.72020899274185,1,150
209049931,189,b_1,blue,red,X,color_change,no_figure_change,not_first,no_update,correct,3,1010,3015,3350,0,NaN,NaN,25,NaN,25,NaN,NaN,1,275
209049931,190,b_1,red,red,Y,color_change,figure_change,not_first,update,correct,16,1023,3027,3350,0,0.354703012836323,3.59333177058063,1450,-6.29780251530498,2475,-0.985624492332519,-3.76750601023785,0,NaN
209049931,193,b_2,blue,red,X,color_change,figure_change,not_first,no_update,correct,10,1018,3024,225,0,-6.30447161048464,2.48332223363548,50,-11.1543497646488,75,2.48332223363548,-6.61946473118037,0,NaN
209049931,194,b_2,red,red,Y,color_change,figure_change,not_first,update,correct,10,1017,3021,2250,0,7.34247208837733,12.2066199782331,900,0.678737046325651,125,1.07769838640988,6.73916386693796,0,NaN
209049931,195,b_2,blue,red,X,color_change,figure_change,not_first,no_update,correct,21,1030,3034,3525,0,3.41467988548484,7.08999214042441,975,-1.36096192472273,250,-1.04384988210637,3.61595057200245,1,125
209049931,197,b_2,red,red,Y,color_change,no_figure_change,not_first,update,correct,92,1100,3105,2150,0,-3.7803310529107,8.57648442022715,75,-17.9449381404537,2000,7.7167769773868,-13.524352906772,0,NaN
209049931,203,b_3,blue,red,Y,color_change,no_figure_change,not_first,no_update,correct,21,1029,3034,2700,0,-1.18202265491996,6.04559128198221,1275,-7.22449922068925,1825,2.22247878542977,1.18339779483924,0,NaN
209049931,204,b_3,red,red,Y,color_change,no_figure_change,not_first,update,correct,8,1015,3021,2825,0,0.738742687138288,5.01141563416475,2225,-3.43742735867382,675,1.45521473174055,2.37865515231991,0,NaN
209049931,207,b_0,blue,red,X,color_change,figure_change,not_first,no_update,correct,22,1029,3034,3525,0,3.64313357732751,13.5687180148316,2500,-1.60983839957848,75,0.573420850546242,13.5687180148316,0,NaN
209049931,208,b_0,red,red,X,color_change,no_figure_change,not_first,update,correct,12,1020,3025,3500,0,3.41183964430242,8.58256830286304,2475,-2.41894517441648,100,-0.958884740064207,7.78890919660017,0,NaN
209049931,212,b_1,blue,red,X,color_change,figure_change,not_first,no_update,correct,123,1131,3137,2150,0,5.20983870164689,9.06260663177952,375,1.06865803244928,1775,3.09877613139149,4.56542548533501,0,NaN
209049931,215,b_1,red,red,X,color_change,no_figure_change,not_first,update,correct,11,1019,3023,3525,0,-5.490741181779,-2.05683991544475,50,-9.67816869236191,650,-2.05683991544475,-4.06567227357081,0,NaN
209049931,218,b_2,blue,red,Y,color_change,figure_change,not_first,no_update,correct,12,1021,3027,3525,0,1.63462775727303,5.3685315029265,2125,-3.0467311170983,275,1.26623784723171,4.04026603564266,0,NaN
209049931,219,b_2,red,red,Y,color_change,no_figure_change,not_first,update,correct,21,1027,3033,3300,0,-5.015532639023,-0.988567423198702,50,-11.7398088393665,2450,-0.988567423198702,-10.7418418345835,0,NaN
209049931,221,b_2,blue,red,Y,color_change,figure_change,not_first,no_update,correct,12,1020,3027,3325,0,-7.31560058364405,-0.645775325819287,175,-12.1786463261983,2450,-0.645775325819287,-11.4938735883891,1,150
209049931,222,b_2,red,red,Y,color_change,no_figure_change,not_first,update,correct,26,1033,3038,3450,0,3.37154221086699,8.19019746865996,1500,-0.621219206806558,125,1.09218724071867,7.00146328953522,0,NaN
209154863,7,b_0,red,blue,Y,color_change,figure_change,not_first,no_update,correct,5,1011,3017,3200,0,-7.91388715441568,0.479169052514095,1975,-17.2280906494777,2650,0,-10.7334958436266,0,NaN
209154863,12,b_1,red,blue,Y,color_change,no_figure_change,not_first,no_update,correct,22,1029,3033,3525,0,-2.72290799585221,1.19737496271256,3075,-6.03579596301084,825,-0.789300984388987,-2.82092075171522,0,NaN
209154863,13,b_1,blue,blue,X,color_change,figure_change,not_first,update,correct,11,1017,3022,3300,0,-4.23073273032201,6.30146832323648,3300,-14.3618441318411,1175,0,6.30146832323648,0,NaN
209154863,17,b_1,red,blue,X,color_change,no_figure_change,not_first,no_update,correct,7,1014,3020,3500,0,-5.09589397843287,-1.21503283148489,275,-8.16669544010462,1775,-1.59881096248141,-6.64785479137274,1,200
209154863,18,b_1,blue,blue,Y,color_change,figure_change,not_first,update,correct,15,1022,3027,3525,0,3.31936425437364,9.84949443783792,3350,-4.54060258748693,200,-1.12243278555947,9.84949443783792,0,NaN
209154863,19,b_1,red,blue,Y,color_change,no_figure_change,not_first,no_update,correct,5,1012,3018,3150,0,-7.954235610298,-0.645535115158921,75,-17.0614811466711,2350,-1.1789677411647,-3.57095211451578,1,125
209154863,21,b_1,blue,blue,X,color_change,no_figure_change,not_first,update,correct,202,1210,3215,3475,0,7.96452233827753,21.1109723423358,2850,-8.83480572240538,800,6.4382951549013,15.855144250142,0,NaN
209154863,24,b_2,red,blue,Y,color_change,no_figure_change,not_first,no_update,correct,14,1020,3026,2175,0,0.919716628723269,6.07818411097099,725,-7.10250121635174,1950,0.532613120711758,-6.21064233301229,0,NaN
209154863,25,b_2,blue,blue,X,color_change,figure_change,not_first,update,correct,22,1030,3037,3350,0,2.22591975354275,9.52315520445116,3125,-4.81326379831179,1100,-0.297644842901448,8.68328094248562,0,NaN
209154863,28,b_2,red,blue,X,color_change,figure_change,not_first,no_update,correct,11,1018,3023,3525,0,-9.34084191251608,0.213495374930105,50,-17.6443083486043,2375,0.213495374930105,-7.97135620300566,0,NaN
209154863,30,b_2,blue,blue,Y,color_change,no_figure_change,not_first,update,correct,104,1112,3118,1800,0,6.5659695903705,23.9671156200805,825,-7.73832429595942,225,-0.233222552620845,9.9070608127806,0,NaN
209154863,34,b_3,red,blue,Y,color_change,no_figure_change,not_first,no_update,correct,15,1023,3029,3525,0,0.484494878747768,6.09905432621431,1600,-3.54439489545449,425,-0.59960601515354,3.54659797940484,0,NaN
209154863,35,b_3,blue,blue,X,color_change,figure_change,not_first,update,correct,3,1010,3017,3500,0,2.83329464906027,6.86284724030992,1900,-2.54315868435036,150,0.46970123181535,5.88038159535195,1,150
209154863,37,b_3,red,blue,Y,color_change,figure_change,not_first,no_update,correct,22,1029,3034,2750,0,-10.653583940447,0.617469654588248,100,-20.0669103260812,2575,0.617469654588248,-12.5262701973812,0,NaN
209154863,38,b_3,blue,blue,X,color_change,figure_change,not_first,update,correct,12,1018,3024,3250,0,10.3614872784357,19.3363797191274,1475,-0.0509618441392661,300,0.0652796955879182,13.917922309882,0,NaN
209154863,39,b_3,red,blue,X,color_change,no_figure_change,not_first,no_update,correct,23,1030,3035,3525,0,8.5273843214771,14.2509388598992,2275,1.23965967266979,200,1.4487718146859,5.45192887184535,0,NaN
209154863,44,b_0,red,blue,X,color_change,no_figure_change,not_first,no_update,correct,19,1026,3032,3525,0,1.33721812153505,7.42149740917596,1425,-3.44896968590666,2175,-0.496799326261296,4.83668888953423,0,NaN
209154863,45,b_0,blue,blue,X,color_change,no_figure_change,not_first,update,correct,4,1011,3016,3500,0,-0.567524455982869,4.2389025385886,1375,-5.63027754673372,2000,0.494647230857083,-2.54050511129083,0,NaN
209154863,46,b_0,red,blue,X,color_change,no_figure_change,not_first,no_update,correct,16,1023,3028,3525,0,1.57030806050396,7.11505685921445,1100,-2.75369994126314,2075,0.00365901803509416,1.30626943853331,1,200
209154863,49,b_1,red,blue,X,color_change,no_figure_change,not_first,no_update,correct,1253,2259,4265,1025,0,-10.9401615006344,0.0141504552433815,550,-20.5798307436592,750,-9.43814244650811,-17.4295592449993,0,NaN
209154863,50,b_1,blue,blue,X,color_change,no_figure_change,not_first,update,correct,15,1021,3027,3400,0,15.9232711464251,23.2844135538884,2425,-0.140321372731933,425,0.79147560799359,21.0193007581033,0,NaN
209154863,51,b_1,red,blue,Y,color_change,figure_change,not_first,no_update,correct,22,1029,3034,2800,0,-3.59421338376504,5.9463579057764,2650,-10.9472800111986,1900,-1.13496734858029,5.9463579057764,1,175
209154863,53,b_2,red,blue,X,color_change,figure_change,not_first,no_update,correct,3,1012,0,2500,0,-9.32897039396112,2.33175332300797,450,-28.6917392392749,2275,0.597744567484895,-18.6104728430213,0,NaN
209154863,57,b_2,blue,blue,X,color_change,no_figure_change,not_first,update,correct,22,1029,3034,3525,0,11.1520386051034,18.9558567517523,1525,-2.32671252832242,425,-1.33106352649968,11.9774046669091,1,125
209154863,61,b_3,red,blue,X,color_change,no_figure_change,not_first,no_update,correct,13,1020,3025,3150,0,-10.7445150371823,-0.610845088650194,75,-22.3263083493445,3050,-1.04448935301789,-14.8400712785338,0,NaN
209154863,62,b_3,blue,blue,X,color_change,no_figure_change,not_first,update,correct,25,1032,3036,3450,0,12.0572713031047,21.7851666308172,1350,0.0765560420294804,75,0.0765560420294804,10.8197856893397,1,125
209154863,64,b_3,red,blue,Y,color_change,no_figure_change,not_first,no_update,correct,22,1030,3034,3450,0,-8.37180532782706,-0.452620937471849,125,-16.9613740778924,3125,-1.6421271782758,-8.42343379342789,0,NaN
209154863,65,b_3,blue,blue,X,color_change,figure_change,not_first,update,correct,10,1018,3023,3525,0,2.64333847361121,7.13613904299584,2000,-4.35332871012483,275,-0.393550624133155,-0.298413661581137,0,NaN
209154863,68,b_0,red,blue,Y,color_change,no_figure_change,not_first,no_update,correct,19,1026,3030,3525,0,-3.2260844901899,1.9759884732409,3350,-7.79818974700909,1650,-0.116302240207233,1.9759884732409,0,NaN
209154863,75,b_1,red,blue,X,color_change,no_figure_change,not_first,no_update,correct,5,1013,3018,3350,0,-5.60182753452955,-0.59034387784034,250,-8.53051966462797,1375,-0.59034387784034,-5.74608125075945,1,225
209154863,80,b_2,red,blue,Y,color_change,no_figure_change,not_first,no_update,correct,15,1023,3027,3525,0,-3.14088305564764,2.23229097763905,3350,-9.53230302351481,1750,-0.269869883408603,2.23229097763905,0,NaN
209154863,82,b_2,blue,blue,X,color_change,no_figure_change,not_first,update,correct,21,1028,3033,3475,0,-2.00877754000598,3.83694744144478,1425,-6.8389244547589,575,0.359362272586182,-4.40234408364704,0,NaN
209154863,88,b_3,red,blue,X,color_change,no_figure_change,not_first,no_update,correct,4,1011,3016,3350,0,-0.442956546942043,2.00365924405371,1425,-3.17972892384959,400,-1.05497385384933,-1.09128231757535,1,125
209154863,89,b_3,blue,blue,X,color_change,no_figure_change,not_first,update,correct,15,1021,3027,3375,0,1.64825016691028,9.82646834877491,3100,-10.459723582727,750,0.772533629230011,8.58827502448908,0,NaN
209154863,90,b_3,red,blue,Y,color_change,figure_change,not_first,no_update,correct,22,1030,3036,3375,0,NaN,NaN,25,NaN,25,NaN,NaN,0,NaN
209154863,92,b_3,blue,blue,X,color_change,figure_change,not_first,update,correct,24,1032,3038,3350,0,-1.79995600451076,3.7466047338478,3350,-7.16678928099104,2425,-0.487364971424753,3.7466047338478,2,200
209154863,93,b_3,red,blue,Y,color_change,figure_change,not_first,no_update,correct,11,1017,3023,3525,0,-1.51821058270681,1.94530074517399,2950,-5.64787748172739,1750,-0.469222488264194,-1.58792780353092,0,NaN
209154863,97,b_0,blue,red,Y,color_change,figure_change,not_first,no_update,correct,24,1031,3038,2925,0,4.66978022727321,12.3628222328499,1725,-2.35651618200363,2525,-0.784870556667698,1.53630634710366,0,NaN
209154863,104,b_1,blue,red,Y,color_change,figure_change,not_first,no_update,correct,11,1019,3025,3525,0,10.2229948112081,21.1381545297615,3125,-0.187208298702132,50,-0.187208298702132,17.3428409308868,0,NaN
209154863,106,b_1,red,red,X,color_change,no_figure_change,not_first,update,correct,9,1015,3021,3300,0,-15.4027614066285,-0.312566316932887,225,-21.9988777826135,2425,-0.312566316932887,-16.0065246869841,1,200
209154863,108,b_1,blue,red,X,color_change,figure_change,not_first,no_update,correct,8,1015,3021,3525,0,2.64879219025215,10.7285337784041,2150,-5.05068783023728,700,0.708692930953006,5.45878766461307,0,NaN
209154863,109,b_1,red,red,X,color_change,no_figure_change,not_first,update,correct,17,1024,3029,3525,0,-2.23278864960238,2.35209168378861,1500,-5.40520057933915,1800,-0.435977971639332,-1.69359863922665,1,200
209154863,111,b_2,blue,red,X,color_change,no_figure_change,not_first,no_update,correct,125,1132,3137,3450,0,-3.27207828534148,5.97799382108192,3075,-13.6423588109263,1025,-2.62952154166592,4.6453289090211,0,NaN
209154863,118,b_3,blue,red,Y,color_change,no_figure_change,not_first,no_update,correct,16,1023,3027,3525,0,7.08314108381069,17.5113450959764,2875,-1.87784741848917,700,-0.910951026630883,15.363800896909,0,NaN
209154863,119,b_3,red,red,Y,color_change,no_figure_change,not_first,update,correct,9,1018,3023,3525,0,-8.23605205051543,0.728656470481312,50,-14.9175025734139,2450,0.728656470481312,-12.5126201008818,0,NaN
209154863,125,b_0,blue,red,X,color_change,no_figure_change,not_first,no_update,correct,10,1017,3022,3375,0,3.97026890556359,13.7574260196535,2900,-2.5300438964715,1050,0.437765357768242,10.952129658503,0,NaN
209154863,126,b_0,red,red,Y,color_change,figure_change,not_first,update,correct,170,1179,3184,3200,0,NaN,NaN,25,NaN,25,NaN,NaN,1,250
209154863,128,b_0,blue,red,X,color_change,figure_change,not_first,no_update,correct,17,1023,3028,3525,0,NaN,NaN,25,NaN,25,NaN,NaN,0,NaN
209154863,133,b_1,blue,red,X,color_change,no_figure_change,not_first,no_update,correct,5,1012,3017,3225,0,-0.50865030284713,10.3186679766441,2250,-10.666730568003,3025,-1.18277379725704,-9.74834854983905,0,NaN
209154863,134,b_1,red,red,Y,color_change,figure_change,not_first,update,correct,15,1024,3029,3525,0,5.3410019609075,10.1774780683414,2325,-1.48140485863819,50,-1.48140485863819,6.25949124714437,0,NaN
209154863,135,b_1,blue,red,X,color_change,figure_change,not_first,no_update,correct,3,1010,3015,3500,0,-2.86333026990047,3.84343897033425,800,-11.4955598989901,1325,-0.487885464917923,2.28473716618787,0,NaN
209154863,136,b_1,red,red,X,color_change,no_figure_change,not_first,update,correct,14,1021,3026,3275,0,-5.70632097060605,-0.45086296535942,1400,-13.9354073167555,2725,-0.906273837751343,-6.17275018139948,1,125
209154863,141,b_2,blue,red,X,color_change,figure_change,not_first,no_update,correct,14,1022,3027,3325,0,0.997084270688013,7.66262132943933,2450,-4.25782991586189,2950,-0.144593196143632,-0.127413806502801,0,NaN
209154863,143,b_2,red,red,X,color_change,figure_change,not_first,update,correct,14,1021,3025,3525,0,-3.59408416087484,3.48883888076149,1225,-10.2957127251813,2450,-0.226194565926448,-6.78873195943937,1,150
209154863,144,b_2,blue,red,X,color_change,no_figure_change,not_first,no_update,correct,22,1029,3035,3150,0,-2.15128582949797,4.82458932891889,1225,-11.0373822106202,2350,-1.55095982427098,-1.40451897364065,0,NaN
209154863,145,b_2,red,red,Y,color_change,figure_change,not_first,update,correct,12,1019,3024,3525,0,-0.0939695611756685,4.01135349799817,3125,-3.82725365519111,325,-1.83351304984654,3.36133943762556,0,NaN
209154863,147,b_3,blue,red,Y,color_change,figure_change,not_first,no_update,correct,18,1027,3032,3350,0,-0.138612544627583,6.13030613030612,3175,-5.62386562386563,650,-1.42956142956143,5.58140558140558,0,NaN
209154863,151,b_3,red,red,X,color_change,figure_change,not_first,update,correct,16,1023,3028,3525,0,-6.18904654287903,0.161406025824959,50,-12.9280675684908,2425,0.161406025824959,-4.11862915898067,0,NaN
209154863,175,b_1,blue,red,X,color_change,no_figure_change,not_first,no_update,correct,339,1345,3351,3450,0,3.53307808970828,7.53767406111253,3300,0.997964006246988,525,2.68624436831045,7.53767406111253,1,175
209154863,176,b_1,red,red,Y,color_change,figure_change,not_first,update,correct,2,1012,3016,3500,0,-3.82892513788391,1.75328571705087,100,-8.05315215918549,2700,1.1205311344676,-8.04831310609141,0,NaN
209154863,177,b_1,blue,red,Y,color_change,no_figure_change,not_first,no_update,correct,13,1021,3027,3525,0,0.647617087663946,6.25467279680316,850,-4.55441928414902,2550,0.719073604606194,-1.50990418081038,0,NaN
209154863,178,b_1,red,red,Y,color_change,no_figure_change,not_first,update,correct,22,1030,3034,3525,0,4.03913669632085,10.7918353293281,3350,-4.98770620251879,425,-0.0734979274908767,10.7918353293281,0,NaN
209154863,179,b_1,blue,red,Y,color_change,no_figure_change,not_first,no_update,correct,13,1020,3025,3525,0,5.06467423955335,15.7246710847966,3300,-0.973026259336649,50,-0.973026259336649,14.1326277096965,0,NaN
209154863,180,b_1,red,red,X,color_change,figure_change,not_first,update,correct,22,1030,3035,3525,0,-6.89312298280657,0.28662907520841,1125,-13.5749893969839,3225,-2.46667871818227,-13.3900449845996,0,NaN
209154863,182,b_2,blue,red,Y,color_change,no_figure_change,not_first,no_update,correct,18,1026,3031,3525,0,1.34779803332345,4.8012596853368,3250,-1.96739789794312,100,-0.832906698101439,3.66547782428941,0,NaN
209154863,183,b_2,red,red,X,color_change,figure_change,not_first,update,correct,5,1015,3019,3500,0,-2.06978690177678,1.94333582772094,1350,-5.61923172861063,425,-1.07445747069096,0.130539619190145,0,NaN
209154863,184,b_2,blue,red,Y,color_change,figure_change,not_first,no_update,correct,15,1022,3028,3525,0,0.744683743985928,7.95680864832264,3350,-2.5744340873251,450,-0.462196049030055,7.95680864832264,1,200
209154863,189,b_2,red,red,Y,color_change,figure_change,not_first,update,correct,21,1029,3034,3375,0,-0.447429879419506,12.87725173113,1425,-11.7102639394883,2950,-0.0816134216216682,-6.08861366562056,0,NaN
209154863,191,b_3,blue,red,Y,color_change,no_figure_change,not_first,no_update,correct,19,1026,3031,3525,0,-2.94030042987554,3.23179436291151,3350,-8.93112062812277,575,-0.26744833829494,3.23179436291151,1,125
209154863,192,b_3,red,red,X,color_change,figure_change,not_first,update,correct,9,1018,3024,3525,0,-1.71105513265997,1.49352000917521,1425,-4.69209955100949,2950,-0.678795499050622,-2.40233288165255,0,NaN
209154863,193,b_3,blue,red,X,color_change,no_figure_change,not_first,no_update,correct,23,1031,3035,3325,0,-3.33261610978499,4.88711004745417,1450,-14.0580552213628,2600,0.546900143204894,-3.12869216995375,0,NaN
211335542,2,b_0,red,blue,Y,color_change,figure_change,not_first,no_update,correct,16,1025,3031,3400,0,-2.59336734853902,1.50857202002334,50,-7.73175505288118,2525,0,-6.45512627498212,0,NaN
211335542,3,b_0,blue,blue,X,color_change,figure_change,not_first,update,correct,7,1013,3018,3500,0,1.82105101267051,5.30671259172262,1075,-2.16704745643946,100,0,4.16508346944717,0,NaN
211335542,4,b_0,red,blue,Y,color_change,figure_change,not_first,no_update,correct,16,1022,3028,3525,0,-2.38091518130276,2.04163659996756,800,-7.2496198080589,2175,-1.47610843285705,-0.0446593315673312,1,175
211335542,11,b_1,red,blue,X,color_change,figure_change,not_first,no_update,correct,17,1024,3030,3400,0,-3.30556134012126,10.9244620408295,2750,-16.313831169353,100,-14.2426247425055,-11.8304139466233,0,NaN
211335542,13,b_2,red,blue,Y,color_change,figure_change,not_first,no_update,correct,16,1026,3030,3500,0,5.07228318163988,12.8697165676099,2450,-4.85397614487708,100,0.646440068224024,-0.286110124747509,0,NaN
211335542,14,b_2,blue,blue,Y,color_change,no_figure_change,not_first,update,correct,6,1012,3019,3275,0,6.5814773002604,24.7512713445927,2425,-8.04592003359149,2575,1.53348651674909,10.4180274330503,2,175
211335542,15,b_2,red,blue,Y,color_change,no_figure_change,not_first,no_update,correct,15,1022,3028,3525,0,3.57962547357433,9.74101061740281,1350,-3.60405220730216,175,-3.60405220730216,2.09194372057253,1,150
211335542,16,b_2,blue,blue,Y,color_change,no_figure_change,not_first,update,correct,4,1012,3018,3475,0,-3.11648736257167,2.37573581817702,300,-6.90415225826888,2425,-0.727503101655103,-2.74687854710557,0,NaN
211335542,18,b_2,red,blue,X,color_change,figure_change,not_first,no_update,correct,22,1028,3034,3325,0,4.20003438403667,16.8462037992022,2900,-8.57221594660817,2775,-2.4690448515408,16.8462037992022,0,NaN
211335542,19,b_2,blue,blue,Y,color_change,figure_change,not_first,update,correct,14,1021,3026,3500,0,-0.988603084940944,16.3085426885442,2750,-17.5949671754268,175,-14.9880901991053,10.1929083429469,1,125
211335542,20,b_2,red,blue,X,color_change,figure_change,not_first,no_update,correct,22,1028,3034,3300,0,11.7073770551018,38.5175633187248,2550,-11.3077954322747,1775,0.0048093975628376,19.5922833216104,2,175
211335542,21,b_2,blue,blue,Y,color_change,figure_change,not_first,update,correct,11,1019,3024,2550,0,23.2904714789145,51.5872684463945,2000,-4.30488145676006,1675,14.5749885166757,42.4230938484715,0,NaN
211335542,23,b_2,red,blue,Y,color_change,no_figure_change,not_first,no_update,correct,10,1017,3024,2750,0,10.7899294691683,33.895916667159,2250,-2.8505338288557,475,14.2718716211026,27.2474283452192,0,NaN
211335542,26,b_3,red,blue,X,color_change,figure_change,not_first,no_update,correct,21,1028,3033,3450,0,-2.1480771209286,5.3505821613342,1225,-8.48873702588931,2900,-0.960539423087226,4.56142417977914,1,200
211335542,29,b_3,blue,blue,Y,color_change,figure_change,not_first,update,correct,6,1013,3018,3100,0,0.308873179411478,12.0149450454861,2700,-12.9642082837945,2900,-3.27386876550051,-2.69634873924716,0,NaN
211335542,30,b_3,red,blue,X,color_change,figure_change,not_first,no_update,correct,22,1028,3033,3300,0,-11.8002740319971,5.43362383413249,175,-23.6546211617801,2275,-7.53612934376778,-4.6090190697919,2,125
211335542,32,b_3,blue,blue,X,color_change,no_figure_change,not_first,update,correct,16,1022,3028,3500,0,4.24440375571871,11.0934094752992,925,-6.05564234966776,2975,4.78084408754457,4.29448541064211,1,125
211335542,34,b_0,red,blue,Y,color_change,no_figure_change,not_first,no_update,correct,11,1018,3023,3300,0,-4.54892468932966,3.49439297903461,1000,-16.2347635299854,2925,1.57313505607021,-14.81253047294,0,NaN
211335542,37,b_0,blue,blue,X,color_change,figure_change,not_first,update,correct,22,1028,3032,3375,0,0.814686583639861,8.42284694570587,875,-7.33563276557777,2525,0.0508716091142816,-0.719393802186687,1,225
211335542,40,b_0,red,blue,Y,color_change,no_figure_change,not_first,no_update,correct,8,1014,3019,3325,0,4.45207461050429,11.9356040802251,1550,-3.96620576882432,2925,0.0528382482173981,-1.69666395986518,0,NaN
211335542,42,b_0,blue,blue,Y,color_change,figure_change,not_first,update,correct,22,1029,3034,3150,0,-7.02631366767566,8.4379860439699,2825,-18.6985056118374,2500,-4.94530034890076,-11.2433792929505,1,175
211335542,43,b_0,red,blue,X,color_change,figure_change,not_first,no_update,correct,18,1024,3028,3275,0,3.0867921423315,18.0005531298914,2100,-6.5857763236869,1700,0.554895199538663,10.1884760683057,0,NaN
211335542,44,b_0,blue,blue,Y,color_change,figure_change,not_first,update,correct,7,1016,3020,3225,0,-0.449106314656698,23.601122968296,2850,-19.9675417505126,2600,-0.704442042146709,8.24472213069892,0,NaN
211335542,45,b_0,red,blue,Y,color_change,no_figure_change,not_first,no_update,correct,15,1022,3026,3400,0,-3.24919874574997,15.5677655677656,700,-16.4244955429927,2750,-6.95256092654937,-2.09749306570116,0,NaN
211335542,47,b_1,red,blue,X,color_change,figure_change,not_first,no_update,correct,15,1022,3026,3450,0,1.4800789750303,11.4121404674765,2375,-12.6293868019849,2950,3.95485775871747,4.15020095650807,1,325
211335542,50,b_1,blue,blue,X,color_change,figure_change,not_first,update,correct,22,1028,3033,3200,0,-6.03169272112215,1.81751484025878,325,-14.39107480927,225,-10.7958072741638,-4.11730602486288,1,250
211335542,51,b_1,red,blue,X,color_change,no_figure_change,not_first,no_update,correct,12,1018,3022,3350,0,-1.65726800506687,5.99037726755935,2325,-9.08115419536756,2725,-0.424688938650419,-4.57998397098802,1,150
211335542,53,b_1,blue,blue,Y,color_change,no_figure_change,not_first,update,correct,11,1017,3021,3425,0,3.27499763048022,13.8366300448683,1425,-8.85276687620183,2325,2.76434603663679,4.29537710706535,1,150
211335542,56,b_2,red,blue,X,color_change,figure_change,not_first,no_update,correct,23,1029,3034,3175,0,5.8401277446561,21.5458145092362,2900,-11.5491287132167,2425,1.48732171617623,-2.46995412443964,1,175
211335542,57,b_2,blue,blue,X,color_change,no_figure_change,not_first,update,correct,6,1012,3016,3500,0,-1.61436899598937,2.20030349013658,1025,-8.03907566775706,400,-0.289418275566945,-1.43133929462171,2,262.5
211335542,58,b_2,red,blue,X,color_change,no_figure_change,not_first,no_update,correct,22,1028,3032,3450,0,2.91149905997934,10.0382303544595,2800,-5.46854282683638,2900,0.667926279501458,2.98881817378238,1,300
211335542,60,b_2,blue,blue,Y,color_change,no_figure_change,not_first,update,correct,21,1028,3033,3175,0,3.07904794837595,15.3590246026562,2500,-3.24290587125336,1050,3.48211045794325,13.6131794760142,1,150
211335542,61,b_2,red,blue,Y,color_change,no_figure_change,not_first,no_update,correct,6,1012,3016,2825,0,7.33243383131642,31.2863869801294,2750,-13.2044187743121,2175,2.22841868203798,27.5143961960017,0,NaN
211335542,64,b_3,red,blue,Y,color_change,no_figure_change,not_first,no_update,correct,19,1027,3030,2900,0,-16.3722959943725,5.05554847867229,2600,-34.4866883825884,275,-8.57748580579415,-0.31277296549716,0,NaN
211335542,65,b_3,blue,blue,Y,color_change,no_figure_change,not_first,update,correct,14,1022,3026,3475,0,-2.75546071424667,4.75093532437616,1275,-14.0974355792807,450,0.0654978412196101,-5.42987157665884,0,NaN
211335542,66,b_3,red,blue,Y,color_change,no_figure_change,not_first,no_update,correct,26,1032,3037,1625,0,14.5135286544092,33.1325167839096,1550,-13.2511249232063,100,-11.2982139595636,18.6645930074884,0,NaN
211335542,71,b_0,blue,red,X,color_change,figure_change,not_first,no_update,correct,62,1071,3081,3350,0,2.25805113834412,6.46745038959097,1750,-1.85646704971325,500,-1.80277641993017,4.19000606356863,0,NaN
211335542,72,b_0,red,red,X,color_change,no_figure_change,not_first,update,correct,30,1039,3049,3325,0,-1.2597951030123,3.81967382328654,1375,-7.35213666391412,350,-4.04133980181668,-1.60765895953757,1,125
211335542,74,b_0,blue,red,Y,color_change,no_figure_change,not_first,no_update,correct,21,1031,3041,3325,0,0.319955724436316,8.22362181346338,2875,-6.5092905428624,2450,1.19008019089667,-1.17523511575035,2,212.5
211335542,76,b_1,blue,red,Y,color_change,no_figure_change,not_first,no_update,correct,21,1030,3040,3225,0,-4.5704510415678,3.06591319288457,2375,-10.3852226662148,2500,-1.99639026158781,-4.68136308346273,1,150
211335542,77,b_1,red,red,Y,color_change,no_figure_change,not_first,update,correct,12,1022,3031,3225,0,-1.97363488242987,12.3188485717437,2475,-11.5506782838866,2025,-0.592809087901173,7.33484063085916,2,212.5
211335542,78,b_1,blue,red,X,color_change,figure_change,not_first,no_update,correct,22,1033,3042,2925,0,16.1039943913361,47.4657838766657,2175,-16.1771067398854,2750,0.894906333737879,28.65532738131,0,NaN
211335542,79,b_1,red,red,X,color_change,no_figure_change,not_first,update,correct,45,1055,3065,3400,0,-5.02939323643069,4.94713335156321,200,-13.4455483648811,525,-4.76964522630369,-2.87956126758424,2,225
211335542,81,b_1,blue,red,X,color_change,figure_change,not_first,no_update,correct,9,1018,3028,2900,0,8.24866394617627,32.569949363329,1000,-14.8654590349623,1250,9.99804907593172,-2.47680001863569,0,NaN
211335542,85,b_1,red,red,Y,color_change,no_figure_change,not_first,update,correct,5,1015,3025,2275,0,2.33503101933363,24.4911107531839,1875,-16.1950357958111,1700,-1.47348777277297,18.9154063616016,1,275
211335542,86,b_1,blue,red,X,color_change,figure_change,not_first,no_update,correct,92,1101,3111,1325,0,9.71041177100246,25.3651177610446,400,-13.1109463800346,875,2.10162173409803,18.3202632229202,0,NaN
211335542,89,b_1,red,red,Y,color_change,no_figure_change,not_first,update,correct,22,1031,3042,2125,0,15.5894617229072,42.8057480067727,1850,-9.53550541553324,600,3.31651891695205,1.6476954272417,0,NaN
211335542,91,b_2,blue,red,Y,color_change,no_figure_change,not_first,no_update,correct,18,1029,3038,3325,0,-3.82243571751686,8.76861741552433,2950,-19.1210317305517,2875,-0.219495005448366,8.76861741552433,0,NaN
211335542,93,b_2,red,red,X,color_change,figure_change,not_first,update,correct,20,1032,3041,2925,0,8.02675402029681,28.1825539333567,2625,-9.80851736571414,2650,3.45805860221448,17.2612848858965,1,200
211335542,95,b_2,blue,red,X,color_change,no_figure_change,not_first,no_update,correct,20,1029,3039,1750,0,-6.22850114642737,8.62125406861462,1550,-28.9051685435295,600,-4.25895095214935,-6.51422612144113,0,NaN
211335542,96,b_2,red,red,X,color_change,no_figure_change,not_first,update,correct,6,1017,3027,2425,0,-11.6670539600632,7.85425374900008,825,-31.5130074247665,1800,0.396363103755192,-9.07060851538471,0,NaN
211335542,97,b_2,blue,red,Y,color_change,figure_change,not_first,no_update,correct,206,1215,3225,3050,0,-11.4353807510263,4.01635557087694,50,-24.3954639145642,2225,4.01635557087694,0.346406777794542,1,125
211335542,98,b_2,red,red,Y,color_change,no_figure_change,not_first,update,correct,5,1013,3025,2525,0,-2.26260645537774,18.7332771685019,2275,-24.2908778266681,525,7.19362784457989,4.16492695689556,0,NaN
211335542,99,b_2,blue,red,Y,color_change,no_figure_change,not_first,no_update,correct,23,1038,3048,2750,0,-8.69780758518934,11.8746826396856,175,-28.5563161755026,750,-0.699133018637283,-7.34277734940666,0,NaN
211335542,103,b_2,red,red,X,color_change,no_figure_change,not_first,update,correct,4,1010,3016,825,0,-0.976772136082916,16.3078167949832,825,-18.6258433785118,625,2.41250877589633,16.3078167949832,0,NaN
211335542,107,b_3,blue,red,X,color_change,figure_change,not_first,no_update,correct,24,1032,3037,3400,0,1.17632303672003,6.33024626394443,2150,-5.16650234299705,250,5.24238664436297,-2.73211179917801,0,NaN
211335542,109,b_3,red,red,X,color_change,figure_change,not_first,update,correct,21,1030,3035,2875,0,0.486698637196325,19.6239455060742,2450,-15.2316710034197,2475,1.4584748993155,13.5182392230306,1,325
211335542,110,b_3,blue,red,Y,color_change,figure_change,not_first,no_update,correct,258,1265,3270,3275,0,NaN,NaN,25,NaN,25,NaN,NaN,0,NaN
211335542,114,b_3,red,red,Y,color_change,figure_change,not_first,update,correct,25,1031,3037,1525,0,-8.88653197463148,4.86009096793148,175,-29.4161307923576,750,-14.1104118298073,-16.4223845615182,1,150
211335542,115,b_3,blue,red,Y,color_change,no_figure_change,not_first,no_update,correct,44,1052,3058,2400,0,NaN,NaN,25,NaN,25,NaN,NaN,0,NaN
211335542,119,b_0,blue,red,X,color_change,figure_change,not_first,no_update,correct,40,1049,3054,3325,0,-1.7111318504668,3.34793626795667,2150,-5.91406168746337,125,0.129118014880277,-0.685923599678347,0,NaN
211335542,125,b_0,red,red,X,color_change,no_figure_change,not_first,update,correct,14,1020,3026,2850,0,0.294561148431209,26.7823490604967,400,-16.7912065961043,1850,1.12545897541705,-7.90607332567608,0,NaN
211335542,127,b_0,blue,red,Y,color_change,no_figure_change,not_first,no_update,correct,12,1020,3025,2550,0,-0.501317267988492,24.2839896551027,575,-26.1019235043339,1950,0.974127654415781,-0.877901925524824,0,NaN
211335542,129,b_0,red,red,Y,color_change,no_figure_change,not_first,update,correct,810,1818,3823,1650,0,-5.9790370592378,13.3933910178707,125,-28.7069372674839,800,0.299667992061586,-5.32608670362882,1,125
211335542,132,b_1,blue,red,X,color_change,figure_change,not_first,no_update,correct,8,1014,3020,2475,0,12.2565473511771,42.0645198926613,2000,-12.1246062303115,1625,0.149632481624081,32.902811807257,0,NaN
211335542,134,b_1,red,red,X,color_change,no_figure_change,not_first,update,correct,5,1014,3018,2600,0,20.3359296914033,44.5112747787079,1725,-0.544344433372174,100,13.9968254689574,37.7129743538141,1,225
211335542,140,b_2,blue,red,X,color_change,no_figure_change,not_first,no_update,correct,14,1022,3027,3525,0,3.62007507921201,10.159034212402,2325,-3.64926719529579,775,0.579394600855309,8.05055016037063,0,NaN
211335542,141,b_2,red,red,X,color_change,no_figure_change,not_first,update,correct,11,1019,3023,3400,0,-4.02886513264247,2.15944184509239,750,-10.404466065545,1900,0.537084663134308,-2.94492816492631,0,NaN
211335542,142,b_2,blue,red,Y,color_change,figure_change,not_first,no_update,correct,106,1113,3118,3275,0,2.4742015494381,20.4364969486194,2275,-14.1050206563514,2475,-2.66095894204038,6.49789006169216,1,250
211335542,144,b_2,red,red,Y,color_change,no_figure_change,not_first,update,correct,107,1116,3121,2200,0,-9.57623028891946,11.2849825378347,1850,-32.6172293364377,525,2.55925494761351,0.242142025611173,0,NaN
211335542,147,b_2,blue,red,X,color_change,figure_change,not_first,no_update,correct,6,1013,3018,2600,0,10.271176432284,33.2648615370044,2375,-7.48700614470242,1125,0.352225234718162,25.2125190911997,0,NaN
211335542,148,b_2,red,red,Y,color_change,figure_change,not_first,update,correct,16,1023,3028,1600,0,2.12334155514102,18.7059928023783,1500,-21.8705992802378,600,-8.94886363636364,8.16260170552339,0,NaN
211335542,149,b_2,blue,red,X,color_change,figure_change,not_first,no_update,correct,4,1012,3017,2775,0,-0.765181094172459,20.5978648455903,2750,-19.2036932984678,2650,7.64889892593953,-17.2700602943401,1,275
211335542,152,b_2,red,red,Y,color_change,no_figure_change,not_first,update,correct,14,1021,3025,2875,0,7.27215251575393,30.9187437614825,1775,-13.7645203755407,1825,11.5630650831079,17.6660349790965,0,NaN
211335542,154,b_3,blue,red,X,color_change,no_figure_change,not_first,no_update,correct,23,1029,3034,3200,0,2.37146760775873,7.67005649717514,2750,-2.65812931575644,2325,-0.104959196484614,5.82297551789077,0,NaN
211335542,157,b_3,red,red,Y,color_change,no_figure_change,not_first,update,correct,159,1166,3171,2150,0,5.50354106618092,28.9457893157737,400,-17.6043920181492,875,4.98497218142867,-10.5805317373843,0,NaN
211335542,158,b_3,blue,red,Y,color_change,no_figure_change,not_first,no_update,correct,21,1027,3033,3300,0,-8.21078692157046,0.508262149237481,50,-15.7378918549642,125,0.508262149237481,-9.1065989326238,0,NaN
211335542,165,b_0,red,blue,X,color_change,figure_change,not_first,no_update,correct,4,1011,3015,3200,0,2.6159130701293,9.36564430309234,1175,-5.73601121791793,2200,1.05977492817294,6.0504861189242,0,NaN
211335542,166,b_0,blue,blue,Y,color_change,figure_change,not_first,update,correct,14,1021,3025,3500,0,5.52387682451396,11.2613834528192,1400,-0.388555189562751,125,0.587999741652141,3.933604598592,0,NaN
211335542,169,b_0,red,blue,X,color_change,figure_change,not_first,no_update,correct,22,1028,3031,3275,0,-4.7346839047653,1.77116155009087,2825,-12.7060925513991,2750,-1.60674563381572,-8.59722172733427,0,NaN
211335542,172,b_0,blue,blue,Y,color_change,figure_change,not_first,update,correct,10,1016,3020,3375,0,-13.0455445914144,3.74488589238129,125,-26.832192218425,2975,-0.538999644539032,-3.3050900617294,0,NaN
211335542,173,b_0,red,blue,X,color_change,figure_change,not_first,no_update,correct,21,1028,3032,3450,0,9.56006365724264,22.7867851978342,2375,-1.90122870362298,425,15.5318119094361,7.59890207349373,0,NaN
211335542,174,b_0,blue,blue,Y,color_change,figure_change,not_first,update,correct,9,1014,3018,2925,0,8.80927700577432,32.2427022542707,1950,-3.89624556135733,775,3.13123455266232,3.81787857997881,1,200
211335542,175,b_0,red,blue,Y,color_change,no_figure_change,not_first,no_update,correct,15,1024,3027,3250,0,10.6368769394336,33.1337172255918,2475,-8.50276119226866,2625,15.3901069077007,26.3720411582848,1,125
211335542,179,b_1,red,blue,Y,color_change,figure_change,not_first,no_update,correct,51,1058,3062,2975,0,8.76763225908791,34.7884854455469,2675,-5.78864963760468,2500,20.5143316210447,27.6845401449581,1,150
211335542,183,b_2,red,blue,X,color_change,figure_change,not_first,no_update,correct,15,1023,3026,3225,0,-14.4274060854141,6.14726142220599,225,-33.4109496865671,2525,0.332278151728801,-25.8760743544624,1,175
211335542,184,b_2,blue,blue,X,color_change,no_figure_change,not_first,update,correct,4,1011,3015,3300,0,17.2452244998701,37.5369966916808,775,0.265956588396676,50,0.265956588396676,19.8173162269023,0,NaN
211335542,185,b_2,red,blue,X,color_change,no_figure_change,not_first,no_update,correct,16,1023,3026,3225,0,-7.2696308021931,1.98123099097974,2475,-15.0927393022633,375,-11.9212086679832,-5.59115613869398,3,183.333333333333
211335542,187,b_2,blue,blue,X,color_change,no_figure_change,not_first,update,correct,14,1021,3024,3225,0,3.01482159867141,23.6126211637472,2525,-8.90873529496361,3000,-0.551960192136207,-8.90873529496361,0,NaN
211335542,189,b_2,red,blue,X,color_change,figure_change,not_first,no_update,correct,12,1019,3024,2850,0,-1.09290995228518,21.8453253330718,2250,-15.8414188449622,825,3.21741965064228,7.90441030316362,0,NaN
211335542,193,b_2,blue,blue,Y,color_change,no_figure_change,not_first,update,correct,24,1033,3037,3150,0,7.20113950445853,29.8151679208235,600,-12.7240173879487,550,4.84524498620995,18.0788700103283,0,NaN
211335542,195,b_3,red,blue,Y,color_change,figure_change,not_first,no_update,correct,20,1029,3033,2625,0,8.36636940928613,34.9030898753617,2250,-6.57403548854302,125,-2.62186255110694,32.6892086037424,1,150
211335542,198,b_3,blue,blue,X,color_change,figure_change,not_first,update,correct,9,1017,0,1575,0,7.01695069958839,36.0666413102359,1025,-13.855560550004,375,-1.66516833212314,14.1437018083745,0,NaN
211335542,199,b_3,red,blue,Y,color_change,figure_change,not_first,no_update,correct,1470,2479,4484,1400,0,-4.36776868272653,17.6025381558914,850,-20.8815310631661,775,-6.22006015819377,2.02592929555497,0,NaN
211335542,200,b_3,blue,blue,X,color_change,figure_change,not_first,update,correct,8,1015,3019,2875,0,-3.5023562356039,22.0950706461948,2875,-27.8877791356798,325,-10.9131284284556,6.15832573218728,0,NaN
211335542,201,b_3,red,blue,Y,color_change,figure_change,not_first,no_update,correct,15,1023,3027,2800,0,-15.8768189620176,-1.19388347798271,100,-35.7438990512909,850,-3.57091747830258,-19.8559679442391,0,NaN
211335542,202,b_3,blue,blue,X,color_change,figure_change,not_first,update,correct,83,1090,3097,1325,0,-3.32661043208552,21.0216478877067,250,-29.2825786752372,400,9.37432836705806,10.249087814386,0,NaN
211335542,203,b_3,red,blue,Y,color_change,figure_change,not_first,no_update,correct,18,1025,3032,950,0,-13.7093124501257,-2.35281297162149,925,-26.4626177640155,825,-4.32298284788446,-12.097978016013,0,NaN
211335542,212,b_0,blue,red,X,color_change,figure_change,not_first,no_update,correct,15,1021,3027,3475,0,2.25788978786899,8.74710343912373,1500,-3.29314727289432,1925,-0.807974602137605,1.86247588325966,2,262.5
211335542,213,b_0,red,red,Y,color_change,figure_change,not_first,update,correct,4,1011,3017,3425,0,0.544368095154321,5.87725494321626,1150,-5.9253470395808,2850,0.368956551796686,-3.78474779202172,0,NaN
211335542,218,b_0,blue,red,Y,color_change,no_figure_change,not_first,no_update,correct,9,1015,3021,3125,0,-7.08874192251988,3.31458657412948,1025,-19.9608112959196,1500,-0.342527222687565,-0.731921343384784,1,125
211335542,221,b_1,blue,red,X,color_change,no_figure_change,not_first,no_update,correct,4,1011,3016,3125,0,-3.36677477466263,4.17583617617802,1375,-11.4710860735033,2975,-0.62863071031947,-9.2844102907417,0,NaN
211335542,222,b_1,red,red,Y,color_change,figure_change,not_first,update,correct,15,1023,3028,3325,0,4.78141570724948,11.784348214535,2100,-6.03400619817405,2875,2.42035904737973,-2.73389731133261,0,NaN
211335542,226,b_2,blue,red,Y,color_change,no_figure_change,not_first,no_update,correct,16,1025,3034,3100,0,-0.177039539425374,6.06677524429968,1275,-5.44094583182532,2725,0.890738730043836,-3.62553786142277,1,125
211335542,228,b_2,red,red,Y,color_change,figure_change,not_first,update,correct,14,1024,3035,3325,0,-3.45520934491251,5.99077418773828,1725,-14.489128150735,2600,-0.201376867426475,-10.0968610224441,0,NaN
211335542,229,b_2,blue,red,Y,color_change,no_figure_change,not_first,no_update,correct,23,1033,3043,3175,0,2.020001597148,6.75144698779872,2375,-3.97980819781189,2750,-2.62862182976995,0.273326838602614,0,NaN
211335542,231,b_2,red,red,Y,color_change,figure_change,not_first,update,correct,22,1031,3042,3275,0,0.895669181955379,3.63592902741367,1425,-3.286210542999,400,0.621490798454587,3.11732717385374,1,125
211335542,232,b_2,blue,red,Y,color_change,no_figure_change,not_first,no_update,correct,11,1021,3030,3200,0,-1.62416201995905,5.1791603990133,925,-13.0112704375893,2725,-0.336374562524099,-11.538529375452,0,NaN
211335542,234,b_2,red,red,X,color_change,no_figure_change,not_first,update,correct,10,1018,3029,3400,0,-1.54722469806089,2.90955858580095,750,-7.47537133184991,2875,-1.22002244156634,-5.46609041288679,0,NaN
211335542,235,b_2,blue,red,Y,color_change,figure_change,not_first,no_update,correct,27,1036,3046,3325,0,0.369533258592889,7.28799354438624,1400,-7.38451638682827,2550,0.407886850319542,-2.27684930760429,0,NaN
211335542,238,b_2,red,red,Y,color_change,figure_change,not_first,update,correct,7,1017,3026,2925,0,-5.56371910934896,16.2813611398591,1250,-26.6360904084363,1700,-0.973129127608729,-6.09341146162953,1,250
211335542,240,b_3,blue,red,Y,color_change,figure_change,not_first,no_update,correct,19,1029,3039,3375,0,-0.43917953998867,7.94161638042189,400,-10.8154107999381,2700,2.2649440404353,-1.84073443705194,0,NaN
211335542,242,b_3,red,red,Y,color_change,no_figure_change,not_first,update,correct,117,1128,3138,2950,0,0.815905070117888,27.6340839141609,2925,-23.893166506256,675,12.5752255444267,5.85040560978963,0,NaN
211335542,244,b_3,blue,red,X,color_change,figure_change,not_first,no_update,correct,13,1023,3033,3375,0,-4.18376806182668,7.93424724136473,2975,-13.5141419693062,875,-3.4054876759819,3.45225764173678,0,NaN
211335542,247,b_3,red,red,Y,color_change,figure_change,not_first,update,correct,22,1032,3041,2825,0,4.2335539911672,29.9945449923887,2200,-15.8069555631082,2775,1.2717879001648,-6.18015234036963,0,NaN
211335542,249,b_3,blue,red,X,color_change,no_figure_change,not_first,no_update,correct,25,1036,3046,2875,0,-6.71377542053535,13.4506671259384,2250,-25.6410386294792,2775,2.52591001651352,-2.18930774919711,1,150
211335542,250,b_3,red,red,X,color_change,no_figure_change,not_first,update,correct,14,1027,3036,3475,0,-0.940454728537521,10.1154908763814,75,-13.1912319026814,275,8.96111753619464,-1.49972157971386,0,NaN
211335542,251,b_3,blue,red,Y,color_change,figure_change,not_first,no_update,correct,14,1023,3033,2975,0,0.150784009628665,24.685875982913,1500,-21.4592006094741,2300,0.531113106413088,-3.57603460941964,1,225
306346313,2,b_0,blue,red,X,color_change,figure_change,not_first,no_update,correct,6,1014,3020,550,0,9.84877900891219,28.4006510083194,325,-11.3843840618623,375,0,4.80986095850236,0,NaN
306346313,5,b_0,red,red,Y,color_change,figure_change,not_first,update,correct,18,1027,0,425,0,-7.82864440601595,2.91161105886077,100,-20.6184991013977,300,0,-16.7158647533733,0,NaN
306346313,11,b_0,blue,red,X,color_change,figure_change,not_first,no_update,correct,173,1181,3187,800,0,6.4410113739871,22.5451593689548,450,-11.6099242556018,350,9.21846750686549,1.04761302360885,0,NaN
306346313,12,b_0,red,red,Y,color_change,figure_change,not_first,update,correct,344,1351,3357,675,0,-1.16124134931508,10.8106329613703,50,-12.5341992503373,350,10.8106329613703,3.75540038115871,0,NaN
306346313,13,b_0,blue,red,X,color_change,figure_change,not_first,no_update,correct,288,1298,3304,375,0,-9.27124687038636,2.83481227703922,350,-15.0882889336054,125,-11.5239796230932,-10.7037667117497,0,NaN
306346313,14,b_0,red,red,X,color_change,no_figure_change,not_first,update,correct,45,1053,0,150,0,12.5482202783738,16.9648456841063,125,7.84975518512405,75,14.0485228585575,13.0271772019585,0,NaN
306346313,15,b_0,blue,red,X,color_change,no_figure_change,not_first,no_update,correct,1229,2236,4241,300,0,3.22325720216855,9.87263955524075,50,-3.09219933981049,200,9.87263955524075,2.51486762799524,0,NaN
306346313,18,b_1,blue,red,Y,color_change,no_figure_change,not_first,no_update,correct,239,1248,0,350,0,3.06986760542952,13.9496545809964,350,-4.66941510469098,100,-1.9915522815764,13.9496545809964,0,NaN
306346313,21,b_1,red,red,X,color_change,no_figure_change,not_first,update,correct,243,1251,3256,150,0,-0.0969640403411887,13.1492572139691,50,-6.03380778304944,125,13.1492572139691,-4.40097482564622,0,NaN
306346313,22,b_1,blue,red,X,color_change,no_figure_change,not_first,no_update,correct,50,1059,3063,575,0,11.6984666625566,33.6822208967581,250,-5.84420713190455,575,9.22686407002809,-5.84420713190455,0,NaN
306346313,23,b_1,red,red,X,color_change,no_figure_change,not_first,update,correct,36,1043,3049,450,0,1.56552019054641,15.765569021927,50,-14.8360231837146,200,15.765569021927,1.37248019121473,0,NaN
306346313,28,b_2,blue,red,X,color_change,figure_change,not_first,no_update,correct,107,1115,3120,1275,0,-16.7185521631622,9.00579590691476,550,-36.8417129930028,275,-7.71574627781773,-20.9172176139453,0,NaN
306346313,29,b_2,red,red,Y,color_change,figure_change,not_first,update,correct,23,1032,3037,1150,0,19.1711660907404,39.5193415242849,450,-5.00305960837012,175,21.2126847763486,27.552673257823,0,NaN
306346313,32,b_2,blue,red,Y,color_change,no_figure_change,not_first,no_update,correct,459,1465,3471,325,0,6.50996697767299,18.5189717483704,275,-15.5733402949439,75,0.299947515983149,4.5054673117034,0,NaN
306346313,33,b_2,red,red,Y,color_change,no_figure_change,not_first,update,correct,77,1083,3090,600,0,-9.62540272652015,2.28624941030678,150,-21.4164841844865,450,-9.80310700848923,-14.8666061130944,0,NaN
306346313,35,b_2,blue,red,Y,color_change,figure_change,not_first,no_update,correct,619,1626,95,75,0,-16.7336835434373,-14.1746766739314,50,-19.2926904129432,75,-14.1746766739314,-19.2926904129432,0,NaN
306346313,38,b_2,red,red,X,color_change,figure_change,not_first,update,correct,1953,2960,1430,100,0,-12.3959177686684,-9.43051020171845,100,-14.1906945505917,75,-13.5665485536951,-9.43051020171845,0,NaN
306346313,39,b_2,blue,red,Y,color_change,figure_change,not_first,no_update,correct,1665,2671,1140,150,0,0.882275235060996,17.3981402336364,75,-18.0037298935426,100,3.20719040588494,1.79527028777164,0,NaN
306346313,40,b_2,red,red,X,color_change,figure_change,not_first,update,correct,604,1613,77,175,0,-5.6385273134611,-0.696208601901972,125,-10.4025516992064,75,-8.45705320056759,-2.44054191638119,0,NaN
306346313,41,b_2,blue,red,Y,color_change,figure_change,not_first,no_update,correct,237,1244,3250,175,0,7.18387921214017,19.3146855073063,100,-0.782272170116656,50,-0.782272170116656,2.05043451913674,0,NaN
306346313,43,b_3,blue,red,Y,color_change,no_figure_change,not_first,no_update,correct,4,1012,3016,875,0,-14.015397329219,0.785308283556361,775,-30.2993292621884,875,-16.8060422019777,-30.2993292621884,0,NaN
306346313,44,b_3,red,red,X,color_change,figure_change,not_first,update,correct,95,1104,3110,2000,0,-9.27989073876048,7.5291032334803,1250,-26.7131140101557,1000,-7.17489646079841,3.31540405367319,0,NaN
306346313,48,b_3,blue,red,X,color_change,figure_change,not_first,no_update,correct,1067,2077,4084,450,0,4.98632639585295,19.6559583069919,300,-10.2755627334208,375,7.84161119463643,6.05366752907301,0,NaN
306346313,49,b_3,red,red,X,color_change,no_figure_change,not_first,update,correct,28,1038,3044,150,0,0.520738899969066,1.95070445067779,50,-1.09587141775366,125,1.95070445067779,0.542603001247855,0,NaN
