participant_id,trial_id,block,border_color,dominant,figure,is_color_change,is_figure_change,is_first,is_update,is_correct,event_fixation,event_stimulus_on,event_stimulus_off,event_Trial_Offset,event_Trial_Onset,trial_mean,trial_max,trial_max_latency,trial_min,trial_min_latency,first_bin,last_bin,valid_blinks,blinks_mean
207280074,2,b_0,red,red,Y,no_color_change,figure_change,not_first,update,correct,21,1031,3037,2200,0,3.14666160840667,3.41683197021484,1675,2.88320159912109,475,3.19561767578125,3.20303344726562,0,NaN
207280074,3,b_0,red,red,Y,no_color_change,no_figure_change,not_first,update,correct,9,1015,3019,2100,0,3.00857404821059,3.2535400390625,25,2.67391204833984,1750,3.2535400390625,3.05283355712891,0,NaN
207280074,4,b_0,red,red,Y,no_color_change,no_figure_change,not_first,update,correct,14,1020,0,1125,0,3.06064215766059,3.17830657958984,900,2.85955810546875,1125,3.13169097900391,2.85955810546875,0,NaN
207280074,6,b_0,blue,red,X,no_color_change,figure_change,not_first,no_update,correct,15,1023,3027,1575,0,3.05393231104291,3.47160339355469,1500,2.41027069091797,1375,3.18805694580078,2.70204925537109,0,NaN
207280074,8,b_0,red,red,X,no_color_change,no_figure_change,not_first,update,correct,17,1026,3032,3050,0,3.10302367577186,3.32428741455078,1150,2.78524017333984,225,2.9842529296875,3.18042755126953,0,NaN
207280074,9,b_0,red,red,X,no_color_change,no_figure_change,not_first,update,correct,23,1029,3034,2875,0,3.12056314028226,3.40258026123047,1350,2.78286743164062,2325,3.24913787841797,3.00637054443359,0,NaN
207280074,15,b_1,red,red,Y,no_color_change,figure_change,not_first,update,correct,9,1017,3022,2800,0,3.23164617098295,3.53817749023438,2400,2.89555358886719,825,3.15071868896484,3.50693511962891,0,NaN
207280074,16,b_1,red,red,X,no_color_change,figure_change,not_first,update,correct,22,1028,3034,2975,0,3.38320754124568,3.59854888916016,2175,3.06533050537109,1025,3.345703125,3.27861022949219,1,250
207280074,23,b_2,blue,red,X,no_color_change,figure_change,not_first,no_update,correct,6,1013,3018,2325,0,2.98576904625021,3.21786499023438,2225,2.69763946533203,1750,3.04646301269531,2.74014282226562,0,NaN
207280074,24,b_2,blue,red,X,no_color_change,no_figure_change,not_first,no_update,correct,38,1045,3050,1900,0,3.22767203194754,3.75124359130859,1600,2.89306640625,275,2.98519897460938,3.4940185546875,0,NaN
207280074,29,b_3,red,red,X,no_color_change,no_figure_change,not_first,update,correct,5,1012,3018,2975,0,2.97684713510367,3.18228149414062,800,2.75884246826172,1325,3.07003784179688,2.98615264892578,0,NaN
207280074,30,b_3,red,red,Y,no_color_change,figure_change,not_first,update,correct,67,1073,3079,2850,0,3.13927511068491,3.443115234375,1875,2.81967163085938,925,3.13047027587891,3.12376403808594,0,NaN
207280074,32,b_0,blue,blue,Y,no_color_change,figure_change,not_first,update,correct,22,1029,3035,2550,0,3.29033297936893,3.47634887695312,1325,2.92934417724609,2525,3.34683227539062,2.96566009521484,0,NaN
207280074,33,b_0,blue,blue,X,no_color_change,figure_change,not_first,update,correct,9,1015,3021,2975,0,3.08377669407771,3.35719299316406,1925,2.85140228271484,175,2.92612457275391,2.99044036865234,0,NaN
207280074,38,b_0,blue,blue,X,no_color_change,no_figure_change,not_first,update,correct,15,1022,3028,2775,0,3.0734354532682,3.34333801269531,1825,2.76080322265625,325,2.98778533935547,3.06741333007812,1,150
207280074,39,b_0,blue,blue,Y,no_color_change,figure_change,not_first,update,correct,4,1011,3015,3075,0,3.24756761697622,3.41355895996094,25,3.09231567382812,2075,3.41355895996094,3.15193176269531,0,NaN
207280074,43,b_1,red,blue,X,no_color_change,figure_change,not_first,no_update,correct,10,1017,3023,3075,0,3.11640673417311,3.31548309326172,100,2.854248046875,1825,3.31484985351562,3.08642578125,0,NaN
207280074,44,b_1,red,blue,Y,no_color_change,figure_change,not_first,no_update,correct,22,1028,3034,3025,0,3.16155800452599,3.41664123535156,2450,2.87319946289062,1425,3.02356719970703,3.19961547851562,0,NaN
207280074,47,b_1,red,blue,X,no_color_change,no_figure_change,not_first,no_update,correct,6,1012,3017,2900,0,3.04996886620155,3.32283782958984,1050,2.76692962646484,2300,3.17977142333984,2.83937072753906,0,NaN
207280074,51,b_2,blue,blue,X,no_color_change,no_figure_change,not_first,update,correct,113,1120,3126,2675,0,2.90310353499192,3.32781219482422,950,2.34076690673828,2275,3.19781494140625,2.90587615966797,0,NaN
207280074,52,b_2,blue,blue,X,no_color_change,no_figure_change,not_first,update,correct,9,1017,3022,2225,0,2.7667040021232,3.25760650634766,1700,2.3946533203125,1850,2.62900543212891,2.95669555664062,0,NaN
207280074,55,b_2,blue,blue,Y,no_color_change,no_figure_change,not_first,update,correct,15,1022,3026,3150,0,3.24276439960186,3.49386596679688,2275,3.03040313720703,600,3.18306732177734,3.17481994628906,0,NaN
207280074,58,b_3,blue,blue,Y,no_color_change,figure_change,not_first,update,correct,7,1014,3019,2500,0,3.13171295166016,3.43368530273438,100,2.83578491210938,2375,3.32149505615234,3.04851531982422,0,NaN
207280074,59,b_3,blue,blue,Y,no_color_change,no_figure_change,not_first,update,correct,17,1025,3031,2950,0,3.02939833127535,3.29373168945312,975,2.69461822509766,2025,3.02764129638672,3.05586242675781,0,NaN
207280074,60,b_3,blue,blue,X,no_color_change,figure_change,not_first,update,correct,5,1011,3017,3150,0,3.27791969592755,3.45212554931641,1800,3.05345153808594,2275,3.30372619628906,3.20417785644531,2,175
207280074,61,b_3,blue,blue,Y,no_color_change,figure_change,not_first,update,correct,15,1023,3028,3000,0,3.21711510878343,3.41246032714844,350,2.96172332763672,825,3.30303192138672,3.10654449462891,0,NaN
207280074,63,b_3,red,blue,Y,no_color_change,figure_change,not_first,no_update,correct,14,1021,3026,2500,0,3.06273574829102,3.29238128662109,1575,2.79817199707031,1750,3.03453826904297,2.99880218505859,1,125
207280074,67,b_3,blue,blue,X,no_color_change,no_figure_change,not_first,update,correct,11,1018,3024,2525,0,2.92982875710667,3.09734344482422,1475,2.56948852539062,325,3.04306030273438,3.05883026123047,1,175
207280074,68,b_3,blue,blue,X,no_color_change,no_figure_change,not_first,update,correct,39,1045,3051,2175,0,2.90778923034668,3.47046661376953,2150,2.25753021240234,25,2.25753021240234,2.77168273925781,1,125
207280074,71,b_0,red,blue,Y,no_color_change,figure_change,not_first,no_update,correct,65,1072,3077,1825,0,3.01076889038086,3.25175476074219,1075,2.71578216552734,1850,3.02149963378906,2.71578216552734,0,NaN
207280074,72,b_0,red,blue,Y,no_color_change,no_figure_change,not_first,no_update,correct,5,1011,3016,2350,0,2.943102304559,3.2034912109375,675,2.53620147705078,1550,2.83302307128906,2.70597839355469,0,NaN
207280074,76,b_1,blue,blue,Y,no_color_change,figure_change,not_first,update,correct,20,1027,3032,2525,0,3.18059517355526,3.30888366699219,1400,3.02581024169922,50,3.04230499267578,3.14787292480469,0,NaN
207280074,79,b_2,red,blue,Y,no_color_change,figure_change,not_first,no_update,correct,22,1028,3034,2825,0,3.07861672914945,3.34222412109375,525,2.75215148925781,2450,3.14447021484375,3.03726196289062,0,NaN
207280074,80,b_2,red,blue,X,no_color_change,figure_change,not_first,no_update,correct,10,1018,3024,2575,0,2.99367545414897,3.19894409179688,1250,2.78134918212891,1800,3.10992431640625,2.81984710693359,1,150
207280074,81,b_2,red,blue,Y,no_color_change,figure_change,not_first,no_update,correct,21,1029,3033,1750,0,2.84225790841239,3.19852447509766,350,2.45294189453125,1700,2.78292083740234,2.58175659179688,1,125
207280074,82,b_2,red,blue,Y,no_color_change,no_figure_change,not_first,no_update,correct,22,1029,3034,2525,0,3.0635504392114,3.40400695800781,2000,2.59947204589844,175,2.60586547851562,3.15449523925781,0,NaN
207280074,83,b_2,red,blue,Y,no_color_change,no_figure_change,not_first,no_update,correct,21,1028,3034,2750,0,2.94469635303204,3.20342254638672,875,2.61392974853516,1425,3.10208892822266,3.14528656005859,0,NaN
207280074,85,b_2,blue,blue,X,no_color_change,figure_change,not_first,update,correct,885,1891,3896,2000,0,3.2553774986738,3.39988708496094,625,3.07377624511719,1200,3.15705871582031,3.18625640869141,0,NaN
207280074,86,b_2,blue,blue,Y,no_color_change,figure_change,not_first,update,correct,4,1011,3017,2925,0,3.17232740842379,3.37853240966797,1100,2.86616516113281,1675,3.08424377441406,3.02397155761719,0,NaN
207280074,87,b_2,blue,blue,X,no_color_change,figure_change,not_first,update,correct,14,1022,3026,2950,0,3.25604603591474,3.49056243896484,2050,2.98690032958984,150,3.00994873046875,3.25897979736328,0,NaN
207280074,88,b_2,blue,blue,Y,no_color_change,figure_change,not_first,update,correct,176,1182,3187,2700,0,3.11836785536546,3.36558532714844,25,2.88707733154297,2350,3.36558532714844,3.00534820556641,0,NaN
207280074,90,b_3,blue,blue,X,no_color_change,figure_change,not_first,update,correct,17,1025,3030,2750,0,3.04182650492741,3.20694732666016,1700,2.82911682128906,1750,3.01706695556641,2.84405517578125,0,NaN
207280074,92,b_3,red,blue,Y,no_color_change,figure_change,not_first,no_update,correct,15,1021,0,2325,0,3.15248714980259,3.44346618652344,1900,2.79222869873047,25,2.79222869873047,3.2354736328125,0,NaN
207280074,93,b_3,red,blue,Y,no_color_change,no_figure_change,not_first,no_update,correct,525,1533,3538,2300,0,3.4684188676917,3.80113220214844,850,2.93109130859375,2125,3.20024871826172,3.09918975830078,0,NaN
207280074,95,b_3,blue,blue,Y,no_color_change,figure_change,not_first,update,correct,13,1021,3025,2525,0,3.38655705971293,3.50553131103516,1450,3.17115783691406,425,3.39619445800781,3.31095123291016,1,175
207280074,97,b_3,red,blue,Y,no_color_change,no_figure_change,not_first,no_update,correct,11,1019,3024,2550,0,3.08972295125326,3.35639953613281,2500,2.84443664550781,1775,3.18976593017578,3.32247924804688,0,NaN
207280074,100,b_0,blue,blue,X,no_color_change,no_figure_change,not_first,update,correct,16,1024,3028,2725,0,3.12777570577768,3.47601318359375,125,2.86426544189453,2400,3.45243835449219,3.04831695556641,0,NaN
207280074,102,b_0,red,blue,Y,no_color_change,no_figure_change,not_first,no_update,correct,5,1012,3018,2725,0,3.18582864908072,3.41820526123047,1450,2.89292144775391,1950,3.18796539306641,3.26261901855469,1,125
207280074,105,b_1,blue,blue,Y,no_color_change,no_figure_change,not_first,update,correct,24,1031,3038,2425,0,3.12169198891551,3.327880859375,1600,2.89089965820312,775,2.98260498046875,3.23149871826172,0,NaN
207280074,109,b_1,red,blue,X,no_color_change,figure_change,not_first,no_update,correct,22,1028,3033,2675,0,3.13590915386493,3.44091796875,900,2.84447479248047,350,2.96218109130859,3.35219573974609,0,NaN
207280074,112,b_1,red,blue,Y,no_color_change,figure_change,not_first,no_update,correct,22,1030,3035,2975,0,3.16656237382155,3.59157562255859,2250,2.78038024902344,1150,3.0703125,3.53286743164062,0,NaN
207280074,113,b_1,red,blue,X,no_color_change,figure_change,not_first,no_update,correct,15,1022,3027,2650,0,3.12603348952073,3.48028564453125,2550,2.70703125,975,3.4149169921875,3.47970581054688,0,NaN
207280074,114,b_1,red,blue,X,no_color_change,no_figure_change,not_first,no_update,correct,22,1029,3034,2875,0,3.15897031930777,3.39002227783203,25,2.92794036865234,1100,3.39002227783203,3.16632080078125,0,NaN
207280074,117,b_1,red,blue,Y,no_color_change,figure_change,not_first,no_update,correct,15,1022,3028,2475,0,2.85149560793482,3.21604919433594,425,2.43256378173828,1200,3.03598022460938,2.61505126953125,0,NaN
207280074,118,b_1,red,blue,Y,no_color_change,no_figure_change,not_first,no_update,correct,30,1037,3043,2100,0,2.81636558981503,3.37160491943359,2125,2.35679626464844,1600,2.70520782470703,3.37160491943359,0,NaN
207280074,120,b_2,blue,blue,X,no_color_change,figure_change,not_first,update,correct,22,1029,3034,2275,0,2.89549628548,3.15995788574219,1400,2.43523406982422,2250,3.07022857666016,2.80522155761719,0,NaN
207280074,121,b_2,blue,blue,Y,no_color_change,figure_change,not_first,update,correct,13,1021,3026,3025,0,3.08251799069918,3.47061920166016,2100,2.61768341064453,450,2.713623046875,3.40799713134766,0,NaN
207280074,125,b_2,red,blue,X,no_color_change,figure_change,not_first,no_update,correct,10,1016,3022,2975,0,2.95546142871563,3.14430236816406,625,2.61855316162109,2325,3.00133514404297,2.86552429199219,1,250
207280074,129,b_3,blue,blue,Y,no_color_change,no_figure_change,not_first,update,correct,156,1163,3170,3025,0,2.98593598145705,3.19466400146484,1500,2.68070983886719,750,3.08800506591797,2.85800933837891,1,150
207280074,133,b_3,red,blue,X,no_color_change,figure_change,not_first,no_update,correct,19,1027,3031,3375,0,3.18640408149132,3.37001037597656,1175,2.93872833251953,2525,3.14985656738281,3.01718902587891,0,NaN
207280074,137,b_0,red,red,Y,no_color_change,figure_change,not_first,update,correct,68,572,1575,3025,0,3.27582806807298,3.55942535400391,2075,2.96409606933594,850,3.22238922119141,3.38993835449219,0,NaN
207280074,142,b_1,blue,red,X,no_color_change,figure_change,not_first,no_update,correct,12,515,1518,3125,0,3.0976808988131,3.25450897216797,1600,2.79844665527344,2325,3.07492065429688,2.97705841064453,1,225
207280074,143,b_1,blue,red,Y,no_color_change,figure_change,not_first,no_update,correct,5,508,1511,2600,0,3.23032500193669,3.44111633300781,1050,2.80416870117188,2550,3.31974029541016,2.83328247070312,1,150
207280074,144,b_1,blue,red,X,no_color_change,figure_change,not_first,no_update,correct,61,564,1567,2350,0,3.06078824495014,3.25467681884766,900,2.67787170410156,100,2.79224395751953,3.10468292236328,1,250
207280074,146,b_1,red,red,X,no_color_change,no_figure_change,not_first,update,correct,10,513,0,1925,0,2.92869528237875,3.06599426269531,550,2.62706756591797,150,3.009521484375,2.84864044189453,0,NaN
207280074,150,b_1,blue,red,Y,no_color_change,no_figure_change,not_first,no_update,correct,16,520,1523,1525,0,3.118774660172,3.45338439941406,575,2.71671295166016,150,2.94024658203125,2.75416564941406,1,125
207280074,152,b_2,red,red,X,no_color_change,no_figure_change,not_first,update,correct,5,508,1511,3075,0,3.05985245337853,3.27968597412109,1300,2.75440979003906,1975,3.00034332275391,2.95870971679688,0,NaN
207280074,154,b_2,blue,red,Y,no_color_change,no_figure_change,not_first,no_update,correct,3,506,1509,2775,0,3.3364713375385,3.62042236328125,525,2.98032379150391,2075,3.28643798828125,3.35676574707031,0,NaN
207280074,155,b_2,blue,red,X,no_color_change,figure_change,not_first,no_update,correct,11,515,1517,3100,0,3.11324273622953,3.41019439697266,50,2.9019775390625,2250,3.37272644042969,3.21149444580078,0,NaN
207280074,157,b_2,red,red,X,no_color_change,no_figure_change,not_first,update,correct,59,563,1565,2250,0,2.94686470450936,3.29383087158203,300,2.51483917236328,1825,3.03595733642578,3.01496124267578,1,125
207280074,158,b_2,red,red,Y,no_color_change,figure_change,not_first,update,correct,3,507,1509,2400,0,3.02277004595884,3.35118103027344,625,2.68441772460938,925,2.97088623046875,3.12637329101562,1,225
207280074,159,b_2,red,red,X,no_color_change,figure_change,not_first,update,correct,8,511,1514,2750,0,3.07361954909105,3.39500427246094,1175,2.71034240722656,850,3.10676574707031,3.02834320068359,0,NaN
207280074,160,b_2,red,red,Y,no_color_change,figure_change,not_first,update,correct,70,573,1575,1925,0,2.82958241512901,3.09516143798828,1050,2.44979095458984,700,2.47219085693359,2.50910186767578,0,NaN
207280074,161,b_2,red,red,Y,no_color_change,no_figure_change,not_first,update,correct,43,546,1549,2675,0,3.22863864898682,3.63408660888672,1175,2.68425750732422,200,3.10208892822266,3.39005279541016,1,175
207280074,165,b_3,red,red,X,no_color_change,no_figure_change,not_first,update,correct,913,1416,2418,2950,0,3.41036737882174,3.94789123535156,125,2.95775604248047,950,3.15188598632812,3.29014587402344,0,NaN
207280074,166,b_3,red,red,Y,no_color_change,figure_change,not_first,update,correct,11,514,1516,2850,0,3.20668484614446,3.41698455810547,1950,2.91649627685547,975,3.28730010986328,3.22314453125,0,NaN
207280074,169,b_3,red,red,X,no_color_change,no_figure_change,not_first,update,correct,11,514,1516,3000,0,2.95034544284527,3.29830932617188,75,2.52539825439453,1100,3.27429962158203,2.91725921630859,0,NaN
207280074,170,b_3,red,red,X,no_color_change,no_figure_change,not_first,update,correct,6,510,1513,2625,0,2.98379010420579,3.25816345214844,1775,2.64920043945312,2425,2.81679534912109,2.81232452392578,0,NaN
207280074,175,b_3,red,red,Y,no_color_change,figure_change,not_first,update,correct,7,512,1514,2750,0,3.05758556952843,3.43380737304688,25,2.71247100830078,675,3.43380737304688,3.03324127197266,1,175
207280074,180,b_0,red,red,X,no_color_change,figure_change,not_first,update,correct,21,1029,3034,1975,0,3.12599298018443,3.31365203857422,1125,2.85387420654297,1900,2.90278625488281,2.93106079101562,0,NaN
207280074,181,b_0,red,red,X,no_color_change,no_figure_change,not_first,update,correct,21,1028,3034,2425,0,3.00663671688158,3.27297210693359,900,2.64325714111328,2025,2.93573760986328,2.88076019287109,0,NaN
207280074,184,b_1,blue,red,Y,no_color_change,no_figure_change,not_first,no_update,correct,23,1029,3036,1175,0,2.83491272621966,3.01881408691406,150,2.61623382568359,750,2.92988586425781,2.73374176025391,0,NaN
207280074,185,b_1,blue,red,X,no_color_change,figure_change,not_first,no_update,correct,309,1317,3323,1500,0,3.00873692830404,3.20537567138672,950,2.66922760009766,1400,3.02189636230469,2.71381378173828,1,225
207280074,186,b_1,blue,red,Y,no_color_change,figure_change,not_first,no_update,correct,22,1029,3034,1950,0,3.06770141215264,3.34954833984375,1275,2.72635650634766,100,2.84099578857422,3.06499481201172,0,NaN
207280074,187,b_1,blue,red,X,no_color_change,figure_change,not_first,no_update,correct,7,1014,3019,1750,0,3.01392665379484,3.34578704833984,1700,2.53482818603516,400,3.11063385009766,3.32366943359375,0,NaN
207280074,191,b_2,blue,red,X,no_color_change,no_figure_change,not_first,no_update,correct,5,1012,3018,1050,0,2.75494970277298,3.07400512695312,400,2.45541381835938,350,2.83406066894531,3.04405212402344,0,NaN
207280074,192,b_2,blue,red,X,no_color_change,no_figure_change,not_first,no_update,correct,14,1021,3027,2200,0,3.02109977636444,3.23687744140625,2200,2.73233032226562,600,2.97939300537109,3.1763916015625,0,NaN
207280074,195,b_2,blue,red,Y,no_color_change,figure_change,not_first,no_update,correct,25,1032,3038,1725,0,3.24930507114955,3.43133544921875,900,2.94287872314453,1625,3.22606658935547,2.95529174804688,0,NaN
207280074,198,b_3,blue,red,X,no_color_change,figure_change,not_first,no_update,correct,15,1021,3026,2525,0,3.07839867620185,3.30123901367188,1325,2.80966949462891,550,3.0606689453125,3.08295440673828,0,NaN
207280074,201,b_3,blue,red,X,no_color_change,no_figure_change,not_first,no_update,correct,22,1030,3036,2525,0,3.11299730055403,3.27898406982422,1125,2.80480194091797,2125,2.83504486083984,3.19496917724609,0,NaN
207280074,202,b_3,blue,red,X,no_color_change,no_figure_change,not_first,no_update,correct,12,1018,3025,1875,0,2.98649749755859,3.18584442138672,25,2.79940795898438,600,3.18584442138672,2.88685607910156,1,125
207280074,204,b_3,red,red,X,no_color_change,figure_change,not_first,update,correct,22,1029,3033,2475,0,3.37717638112078,3.66250610351562,1825,3.05853271484375,2450,3.28374481201172,3.07718658447266,1,225
207280074,207,b_3,red,red,Y,no_color_change,figure_change,not_first,update,correct,20,1027,3034,2225,0,3.11212683783637,3.29646301269531,625,2.86251068115234,775,3.02388763427734,2.90401458740234,1,175
207280074,208,b_3,red,red,X,no_color_change,figure_change,not_first,update,correct,6,1013,3018,2850,0,3.16918490483211,3.35857391357422,1850,2.99976348876953,200,3.02017974853516,3.13809204101562,1,175
207280074,209,b_3,red,red,Y,no_color_change,figure_change,not_first,update,correct,15,1023,3030,2900,0,3.13001688443697,3.29032897949219,350,2.727294921875,2350,3.23426055908203,2.86442413330078,1,125
207280074,210,b_3,red,red,Y,no_color_change,no_figure_change,not_first,update,correct,5,1012,3017,2275,0,3.07893039869226,3.35030364990234,1525,2.76998138427734,2125,3.03444671630859,2.83733367919922,1,150
208827162,3,b_0,red,blue,Y,no_color_change,figure_change,not_first,no_update,correct,11,1018,3022,3000,0,3.24619710076716,3.46218109130859,2225,2.89900970458984,2325,3.26753997802734,3.09989166259766,1,225
208827162,4,b_0,red,blue,X,no_color_change,figure_change,not_first,no_update,correct,22,1029,3035,3175,0,3.14531385284109,3.70476531982422,1325,2.72354888916016,150,3.58278656005859,3.06850433349609,1,125
208827162,5,b_0,red,blue,Y,no_color_change,figure_change,not_first,no_update,correct,9,1016,3021,2875,0,3.02009763422701,3.32785797119141,275,2.66912078857422,2075,3.18071746826172,3.19672393798828,1,175
208827162,9,b_1,blue,blue,Y,no_color_change,figure_change,not_first,update,correct,8,1016,3021,2475,0,3.20042951901754,3.55239105224609,400,2.79589080810547,2425,2.90605163574219,2.79589080810547,0,NaN
208827162,11,b_1,red,blue,Y,no_color_change,no_figure_change,not_first,no_update,correct,10,1017,3023,2875,0,3.09553575024162,3.50987243652344,2375,2.78668212890625,1850,3.01673126220703,3.24483489990234,1,125
208827162,16,b_2,blue,blue,X,no_color_change,no_figure_change,not_first,update,correct,23,1030,3036,2350,0,3.80958200008311,4.20067596435547,2325,3.39085388183594,300,3.62210845947266,4.11772155761719,1,125
208827162,18,b_2,red,blue,Y,no_color_change,figure_change,not_first,no_update,correct,21,1030,3035,2600,0,3.46191768056339,3.72028350830078,1550,3.27111053466797,2400,3.58905029296875,3.29653930664062,0,NaN
208827162,19,b_2,red,blue,X,no_color_change,figure_change,not_first,no_update,correct,8,1016,3022,2475,0,3.44895978318047,3.60906219482422,1500,3.19640350341797,125,3.28614044189453,3.39282989501953,0,NaN
208827162,22,b_2,red,blue,X,no_color_change,figure_change,not_first,no_update,correct,17,1025,3031,2550,0,3.25459116512967,3.57610321044922,1650,2.95778656005859,2250,3.34114837646484,3.10850524902344,0,NaN
208827162,23,b_2,red,blue,X,no_color_change,no_figure_change,not_first,no_update,correct,4,1010,3015,2575,0,3.21386419866503,3.56040954589844,1800,3.00839996337891,700,3.24893188476562,3.20175933837891,0,NaN
208827162,24,b_2,red,blue,X,no_color_change,no_figure_change,not_first,no_update,correct,16,1025,3031,2625,0,3.37146892744241,3.72137451171875,1600,2.89551544189453,2425,3.07606506347656,2.89551544189453,0,NaN
208827162,25,b_2,red,blue,X,no_color_change,no_figure_change,not_first,no_update,correct,31,1040,3045,2500,0,3.16539756538942,3.53509521484375,2425,2.76134490966797,950,3.16562652587891,3.53509521484375,0,NaN
208827162,26,b_2,red,blue,X,no_color_change,no_figure_change,not_first,no_update,correct,12,1018,3024,2825,0,3.36548830799221,3.61517333984375,100,3.11475372314453,1650,3.54780578613281,3.18869495391846,1,200
208827162,27,b_2,red,blue,Y,no_color_change,figure_change,not_first,no_update,correct,22,1028,3033,2150,0,3.18156187561737,3.60746765136719,2125,2.76355743408203,1050,3.12513732910156,3.57376098632812,0,NaN
208827162,28,b_2,red,blue,Y,no_color_change,no_figure_change,not_first,no_update,correct,12,1019,3025,2675,0,3.45112681388855,3.71245574951172,1425,3.18390655517578,2425,3.51650238037109,3.18390655517578,0,NaN
208827162,32,b_3,blue,blue,X,no_color_change,no_figure_change,not_first,update,correct,22,1029,3034,1925,0,3.00206687233665,3.55045318603516,1675,2.29514312744141,1250,3.19933319091797,2.54978179931641,0,NaN
208827162,33,b_3,blue,blue,Y,no_color_change,figure_change,not_first,update,correct,40,1049,0,1025,0,3.00212041343131,3.51286315917969,650,2.23486328125,1000,2.62793731689453,3.18101501464844,0,NaN
208827162,34,b_3,blue,blue,Y,no_color_change,no_figure_change,not_first,update,correct,654,1660,3666,1775,0,3.00122091803752,3.57912445068359,1225,2.45145416259766,675,3.09918975830078,2.94977569580078,0,NaN
208827162,35,b_3,blue,blue,Y,no_color_change,no_figure_change,not_first,update,correct,23,1032,3039,3200,0,3.1158690698368,3.35826110839844,1575,2.77645874023438,50,2.92727661132812,3.11642456054688,1,150
208827162,49,b_1,red,red,X,no_color_change,no_figure_change,not_first,update,correct,25,1032,3038,2375,0,3.71071616724918,4.00241851806641,1450,3.50983428955078,175,3.70756530761719,3.58899688720703,1,125
208827162,50,b_1,red,red,X,no_color_change,no_figure_change,not_first,update,correct,142,1149,3154,2775,0,3.58903770840045,3.77985382080078,100,3.4117431640625,1450,3.54341125488281,3.63492584228516,2,162.5
208827162,52,b_1,blue,red,Y,no_color_change,figure_change,not_first,no_update,correct,13,1022,3027,2550,0,3.59659191013611,3.90207672119141,800,3.35913848876953,2125,3.71681213378906,3.43070983886719,1,350
208827162,56,b_2,blue,red,Y,no_color_change,figure_change,not_first,no_update,correct,1638,2645,1115,100,0,3.5921459197998,3.79056549072266,25,3.46195220947266,75,3.79056549072266,3.65186309814453,0,NaN
208827162,61,b_3,blue,red,Y,no_color_change,no_figure_change,not_first,no_update,correct,9,1016,3022,2300,0,3.38206747303838,3.6378173828125,1550,3.10823822021484,2250,3.35355377197266,3.19803619384766,0,NaN
208827162,62,b_3,blue,red,Y,no_color_change,no_figure_change,not_first,no_update,correct,20,1026,3032,3000,0,3.26745699853012,3.51626586914062,825,3.00990295410156,25,3.00990295410156,3.16781616210938,1,250
208827162,63,b_3,blue,red,X,no_color_change,figure_change,not_first,no_update,correct,21,1028,3034,3300,0,3.3906205954011,3.789306640625,1475,3.02196502685547,1275,3.1812744140625,3.34918212890625,1,125
208827162,65,b_3,red,red,X,no_color_change,no_figure_change,not_first,update,correct,5,1012,3016,2850,0,3.33808194976492,3.77424621582031,2325,2.87787628173828,2125,3.36511993408203,3.45721435546875,0,NaN
208827162,67,b_3,blue,red,X,no_color_change,figure_change,not_first,no_update,correct,3,1009,3015,1725,0,3.36676241003949,3.50648498535156,850,3.18822479248047,1525,3.19843292236328,3.26544189453125,0,NaN
208827162,70,b_3,blue,red,X,no_color_change,figure_change,not_first,no_update,correct,22,1028,3033,2800,0,3.3141176282745,3.84176635742188,2400,2.83213806152344,2425,3.15974426269531,2.83213806152344,1,350
208827162,73,b_3,blue,red,X,no_color_change,figure_change,not_first,no_update,correct,135,1142,3147,2150,0,3.40953330106513,3.70773315429688,25,3.09916687011719,625,3.70773315429688,3.58221435546875,1,125
208827162,77,b_0,blue,red,X,no_color_change,no_figure_change,not_first,no_update,correct,24,1032,3036,3100,0,3.4482779748661,3.67145538330078,1650,3.20383453369141,2125,3.27187347412109,3.45131683349609,0,NaN
208827162,78,b_0,blue,red,Y,no_color_change,figure_change,not_first,no_update,correct,13,1020,3025,2475,0,3.31496924960736,3.61192321777344,2425,3.09141540527344,1950,3.10404968261719,3.61192321777344,0,NaN
208827162,81,b_1,blue,red,X,no_color_change,no_figure_change,not_first,no_update,correct,12,1018,3025,3075,0,3.13685914659009,3.501953125,525,2.82381439208984,1200,3.42353820800781,3.03004455566406,2,125
208827162,82,b_1,blue,red,X,no_color_change,no_figure_change,not_first,no_update,correct,22,1029,3033,2675,0,3.10780531106536,3.38947296142578,250,2.83402252197266,2425,3.02320098876953,2.83402252197266,0,NaN
208827162,83,b_1,blue,red,X,no_color_change,no_figure_change,not_first,no_update,correct,10,1017,3024,2725,0,3.13026939470743,3.53031158447266,800,2.69107818603516,250,3.23630523681641,3.07526397705078,1,175
208827162,86,b_2,blue,red,Y,no_color_change,no_figure_change,not_first,no_update,correct,114,1120,3125,2325,0,3.0514899633264,3.46083831787109,1875,2.71259307861328,825,3.16374206542969,3.262451171875,0,NaN
208827162,87,b_2,blue,red,Y,no_color_change,no_figure_change,not_first,no_update,correct,22,1030,3036,2925,0,3.14603686332703,3.57952880859375,175,2.71031951904297,575,3.35247039794922,3.39800262451172,1,200
208827162,90,b_3,red,red,X,no_color_change,no_figure_change,not_first,update,correct,318,1324,3330,1100,0,3.54853278266059,3.93824768066406,250,3.25804138183594,1100,3.60056304931641,3.34771728515625,0,NaN
208827162,91,b_3,red,red,Y,no_color_change,figure_change,not_first,update,correct,16,1025,3029,2600,0,3.43066355911727,3.63861083984375,1750,3.24619293212891,2125,3.35211181640625,3.311572265625,1,125
208827162,93,b_3,blue,red,Y,no_color_change,no_figure_change,not_first,no_update,correct,16,1023,3029,2700,0,3.44755208123591,3.64136505126953,1450,3.23973846435547,25,3.23973846435547,3.55764770507812,1,150
208827162,95,b_3,red,red,Y,no_color_change,figure_change,not_first,update,correct,65,1072,3078,2850,0,3.06166615436987,3.36418151855469,300,2.79475402832031,1050,3.0814208984375,2.95456695556641,0,NaN
208827162,100,b_0,blue,blue,Y,no_color_change,no_figure_change,not_first,update,correct,14,1021,3026,1775,0,3.38568411933051,3.57236480712891,725,3.12890625,25,3.12890625,3.19411468505859,0,NaN
208827162,101,b_0,blue,blue,X,no_color_change,figure_change,not_first,update,correct,10,1019,3025,3000,0,3.17454418693621,3.48765563964844,2100,2.92124938964844,2200,3.27193450927734,2.95564270019531,1,175
208827162,103,b_0,red,blue,X,no_color_change,no_figure_change,not_first,no_update,correct,8,1015,0,1475,0,3.41408288889918,3.78411865234375,1025,3.06255340576172,75,3.40486907958984,3.48040771484375,0,NaN
208827162,109,b_1,blue,blue,Y,no_color_change,no_figure_change,not_first,update,correct,145,1152,3158,2875,0,3.27512410743949,3.57234191894531,2350,3.076904296875,1000,3.49169921875,3.52023506164551,1,300
208827162,110,b_1,blue,blue,Y,no_color_change,no_figure_change,not_first,update,correct,8,1015,3019,2375,0,3.30056068018863,3.77586364746094,2350,2.86419677734375,2100,3.31747436523438,3.39966583251953,1,150
208827162,111,b_1,blue,blue,X,no_color_change,figure_change,not_first,update,correct,104,1112,3117,2175,0,3.24926652579472,3.78215789794922,2075,2.72029876708984,1975,3.22036743164062,3.29151916503906,1,125
208827162,112,b_1,blue,blue,X,no_color_change,no_figure_change,not_first,update,correct,5,1013,3018,2250,0,3.5175526936849,4.1287841796875,1450,2.82170104980469,1650,3.26146697998047,3.64002227783203,0,NaN
208827162,114,b_1,red,blue,X,no_color_change,no_figure_change,not_first,no_update,correct,60,1067,3072,2575,0,3.33243372022491,4.35549926757812,150,2.63567352294922,100,3.72491455078125,3.39081573486328,0,NaN
208827162,115,b_1,red,blue,X,no_color_change,no_figure_change,not_first,no_update,correct,15,1022,3029,1125,0,3.19714974297418,3.44294738769531,225,2.91651153564453,700,3.43338775634766,3.40155029296875,0,NaN
208827162,117,b_1,blue,blue,Y,no_color_change,no_figure_change,not_first,update,correct,14,1020,0,1875,0,3.27615102132161,3.59612274169922,300,2.95450592041016,150,3.40730285644531,3.31965637207031,0,NaN
208827162,118,b_1,blue,blue,X,no_color_change,figure_change,not_first,update,correct,21,1029,3034,900,0,4.08110788133409,6.45901489257812,175,3.05368804931641,475,5.58963775634766,4.97525024414062,0,NaN
208827162,119,b_1,blue,blue,X,no_color_change,no_figure_change,not_first,update,correct,22,1029,3035,1625,0,3.66652333186223,4.90716552734375,125,2.66001129150391,950,3.99018096923828,3.88319396972656,0,NaN
208827162,121,b_1,red,blue,X,no_color_change,figure_change,not_first,no_update,correct,22,1030,3034,1925,0,3.72015581375513,5.13191986083984,275,2.61914825439453,1925,3.21781921386719,2.84937286376953,0,NaN
208827162,124,b_2,red,blue,Y,no_color_change,figure_change,not_first,no_update,correct,3,1011,3017,1850,0,3.12659485275681,3.54776000976562,1425,2.51242065429688,1475,3.32202911376953,3.11455535888672,1,200
208827162,125,b_2,red,blue,Y,no_color_change,no_figure_change,not_first,no_update,correct,41,1048,3054,2250,0,3.09129163953993,3.69352722167969,1300,2.62059783935547,2175,3.39351654052734,2.71546173095703,0,NaN
208827162,127,b_2,blue,blue,Y,no_color_change,no_figure_change,not_first,update,correct,12,1020,3027,2400,0,3.40264574686686,4.07166290283203,1125,2.84785461425781,1900,3.06549835205078,3.19708251953125,1,150
208827162,128,b_2,blue,blue,Y,no_color_change,no_figure_change,not_first,update,correct,20,1028,3033,2950,0,3.34444962334387,4.17234802246094,250,2.97707366943359,850,3.1368408203125,3.19708251953125,2,125
208827162,129,b_2,blue,blue,Y,no_color_change,no_figure_change,not_first,update,correct,20,1027,3033,1600,0,3.42309641838074,3.80049896240234,425,3.15030670166016,600,3.31401062011719,3.3765869140625,1,125
208827162,133,b_2,red,blue,X,no_color_change,figure_change,not_first,no_update,correct,22,1028,3035,2775,0,3.1842179839144,3.74286651611328,175,2.71613311767578,500,3.18647766113281,2.93209075927734,1,125
208827162,134,b_2,red,blue,X,no_color_change,no_figure_change,not_first,no_update,correct,15,1023,3028,3075,0,3.13050315306359,3.76366424560547,1500,2.75205230712891,1775,2.98703002929688,3.63450622558594,1,175
208827162,137,b_3,blue,blue,X,no_color_change,figure_change,not_first,update,correct,23,1032,3037,2275,0,3.48055308798085,3.8243408203125,1300,3.10139465332031,1675,3.55757141113281,3.46305084228516,1,125
208827162,138,b_3,blue,blue,X,no_color_change,no_figure_change,not_first,update,correct,13,1021,3026,2175,0,3.48902656292093,3.75596618652344,1475,3.25514221191406,2100,3.35270690917969,3.559326171875,0,NaN
208827162,139,b_3,blue,blue,X,no_color_change,no_figure_change,not_first,update,correct,21,1030,3035,1025,0,3.46533348446801,3.91574096679688,150,3.05436706542969,1050,3.55956268310547,3.05436706542969,0,NaN
208827162,140,b_3,blue,blue,Y,no_color_change,figure_change,not_first,update,correct,12,1020,3024,2825,0,3.29428902852167,3.96827697753906,2300,2.93154907226562,1800,3.16270446777344,3.281005859375,0,NaN
208827162,141,b_3,blue,blue,X,no_color_change,figure_change,not_first,update,correct,21,1028,3034,2825,0,3.3022967466374,4.19467163085938,675,2.76074981689453,2200,3.83936309814453,3.46062469482422,1,125
208827162,142,b_3,blue,blue,Y,no_color_change,figure_change,not_first,update,correct,21,1028,3034,2175,0,3.35184667302274,3.87820434570312,1575,2.71916961669922,2050,3.02262115478516,3.87139892578125,0,NaN
208827162,144,b_3,red,blue,Y,no_color_change,figure_change,not_first,no_update,correct,8,1015,3020,2150,0,3.453579436901,4.04669952392578,300,2.82913970947266,2000,3.8189697265625,3.98981475830078,1,300
208827162,145,b_3,red,blue,Y,no_color_change,no_figure_change,not_first,no_update,correct,21,1029,3033,1325,0,3.38863754272461,4.05980682373047,200,2.67208862304688,1225,3.69139099121094,3.52941131591797,0,NaN
208827162,147,b_0,red,red,Y,no_color_change,no_figure_change,not_first,update,correct,12,1019,3025,2775,0,3.61104379240999,3.79398345947266,1775,3.25962829589844,1875,3.67858123779297,3.27957153320312,0,NaN
208827162,149,b_0,blue,red,Y,no_color_change,no_figure_change,not_first,no_update,correct,12,1020,3025,3100,0,3.52789345967401,3.70426177978516,750,3.34995269775391,100,3.38580322265625,3.567138671875,0,NaN
208827162,151,b_1,red,red,Y,no_color_change,no_figure_change,not_first,update,correct,24,1031,3035,2800,0,3.53954122484345,3.69418334960938,1525,3.41780853271484,2325,3.51020812988281,3.47064971923828,0,NaN
208827162,152,b_1,red,red,X,no_color_change,figure_change,not_first,update,correct,10,1019,3023,3175,0,3.62786149487053,3.89925384521484,2175,3.38800811767578,100,3.43679046630859,3.73079681396484,1,125
208827162,153,b_1,red,red,Y,no_color_change,figure_change,not_first,update,correct,23,1031,3037,2675,0,3.59411471652001,3.74459075927734,2025,3.38699340820312,2375,3.59870910644531,3.44589996337891,1,125
208827162,155,b_1,blue,red,X,no_color_change,no_figure_change,not_first,no_update,correct,22,1029,3034,2575,0,3.54608964428459,3.75577545166016,200,3.32568359375,2325,3.60032653808594,3.34577178955078,0,NaN
208827162,156,b_1,blue,red,X,no_color_change,no_figure_change,not_first,no_update,correct,9,1017,3023,3025,0,3.48748519740154,3.70261383056641,1675,3.30393981933594,2200,3.40541076660156,3.40103912353516,1,125
208827162,157,b_1,blue,red,X,no_color_change,no_figure_change,not_first,no_update,correct,22,1029,3033,2875,0,3.54514076783485,3.65907287597656,625,3.36964416503906,2375,3.52158355712891,3.48566436767578,0,NaN
208827162,159,b_1,red,red,Y,no_color_change,no_figure_change,not_first,update,correct,27,1034,3040,2050,0,3.47008022630071,3.65395355224609,1825,3.25900268554688,75,3.31001281738281,3.48414611816406,0,NaN
208827162,160,b_1,red,red,Y,no_color_change,no_figure_change,not_first,update,correct,6,1014,3019,2425,0,3.43189027137363,3.66099548339844,1900,3.25351715087891,400,3.50436401367188,3.33021545410156,0,NaN
208827162,161,b_1,red,red,Y,no_color_change,no_figure_change,not_first,update,correct,242,1250,3255,2550,0,3.50672118196782,3.85459899902344,325,3.18681335449219,1800,3.30731201171875,3.36039733886719,1,125
208827162,163,b_1,blue,red,X,no_color_change,figure_change,not_first,no_update,correct,15,1023,0,1250,0,3.47033660888672,3.59275817871094,1175,3.31182098388672,25,3.31182098388672,3.40999603271484,1,200
208827162,165,b_1,red,red,Y,no_color_change,figure_change,not_first,update,correct,31,1038,3043,2850,0,3.46442841991936,3.68790435791016,1775,3.22740173339844,100,3.35431671142578,3.36309814453125,0,NaN
208827162,167,b_2,red,red,Y,no_color_change,no_figure_change,not_first,update,correct,21,1029,3035,2525,0,3.4345977625896,3.60240173339844,1100,3.15084075927734,25,3.15084075927734,3.20519256591797,1,125
208827162,170,b_2,red,red,Y,no_color_change,figure_change,not_first,update,correct,9,1017,3022,2900,0,3.41251310368174,3.5078125,2425,3.32357788085938,25,3.32357788085938,3.5078125,0,NaN
208827162,175,b_3,red,red,Y,no_color_change,no_figure_change,not_first,update,correct,14,1021,3026,2275,0,3.58962811480512,3.94070434570312,1475,3.32765197753906,300,3.41059875488281,3.68211364746094,0,NaN
208827162,179,b_3,blue,red,X,no_color_change,figure_change,not_first,no_update,correct,202,1211,3217,2275,0,3.28751406826816,3.47570037841797,350,3.11639404296875,1950,3.39823150634766,3.32431793212891,0,NaN
209049931,3,b_0,blue,red,X,no_color_change,no_figure_change,not_first,no_update,correct,9,1015,3021,2425,0,2.63602274471952,2.76470947265625,875,2.45416259765625,1400,2.61767578125,2.65666198730469,1,200
209049931,6,b_0,blue,red,X,no_color_change,no_figure_change,not_first,no_update,correct,17,1022,3028,3050,0,2.46506328972018,2.54164886474609,575,2.37972259521484,325,2.45529174804688,2.52078247070312,1,175
209049931,9,b_0,blue,red,Y,no_color_change,figure_change,not_first,no_update,correct,3,1011,3016,2125,0,2.50552164122116,2.63722229003906,600,2.30947875976562,1450,2.45878601074219,2.56165313720703,1,125
209049931,11,b_1,red,red,X,no_color_change,no_figure_change,not_first,update,correct,12,1018,3023,3375,0,2.42253194536482,2.56449890136719,275,2.29735565185547,1825,2.41419219970703,2.4132080078125,0,NaN
209049931,12,b_1,red,red,X,no_color_change,no_figure_change,not_first,update,correct,22,1030,3036,2825,0,2.37175454898756,2.56678009033203,1650,2.12370300292969,2125,2.42514038085938,2.23137664794922,0,NaN
209049931,14,b_1,blue,red,Y,no_color_change,figure_change,not_first,no_update,correct,21,1029,3034,2500,0,2.40333237939951,2.56108856201172,1775,2.20137786865234,400,2.51225280761719,2.44776916503906,1,225
209049931,15,b_1,blue,red,X,no_color_change,figure_change,not_first,no_update,correct,10,1016,3021,2225,0,2.30425061000867,2.54799652099609,1350,2.05476379394531,275,2.40518188476562,2.25401306152344,0,NaN
209049931,19,b_1,red,red,Y,no_color_change,figure_change,not_first,update,correct,10,1020,3025,1975,0,2.31607074978985,2.53607177734375,1175,1.95535278320312,1600,2.30782318115234,2.12412261962891,0,NaN
209049931,20,b_1,red,red,X,no_color_change,figure_change,not_first,update,correct,17,1024,3029,1775,0,2.31999778747559,2.53361511230469,950,2.04454040527344,1500,2.17716979980469,2.35659790039062,0,NaN
209049931,24,b_2,red,red,X,no_color_change,figure_change,not_first,update,correct,21,1028,3034,2525,0,2.49372178681043,2.62087249755859,1600,2.31958770751953,1500,2.57386016845703,2.54447174072266,1,150
209049931,26,b_2,blue,red,Y,no_color_change,figure_change,not_first,no_update,correct,19,1026,3031,1975,0,2.44128704071045,2.53191375732422,1250,2.265869140625,1975,2.39645385742188,2.3074951171875,1,225
209049931,27,b_2,blue,red,X,no_color_change,figure_change,not_first,no_update,correct,6,1013,3018,1725,0,2.45422274824502,2.60399627685547,575,2.23100280761719,75,2.34175109863281,2.43227386474609,0,NaN
209049931,28,b_2,blue,red,Y,no_color_change,figure_change,not_first,no_update,correct,22,1029,3036,1100,0,2.37918989393446,2.58470153808594,675,1.9830322265625,1000,2.40908813476562,2.02388763427734,0,NaN
209049931,29,b_2,blue,red,Y,no_color_change,no_figure_change,not_first,no_update,correct,3,1010,3016,1925,0,2.28273892093014,2.438720703125,1550,2.11758422851562,225,2.16109466552734,2.27162933349609,0,NaN
209049931,30,b_2,blue,red,X,no_color_change,figure_change,not_first,no_update,correct,16,1022,3027,1200,0,2.30992126464844,2.56072235107422,950,2.09951782226562,1100,2.2589111328125,2.26470184326172,0,NaN
209049931,31,b_2,blue,red,Y,no_color_change,figure_change,not_first,no_update,correct,22,1030,3036,925,0,2.30790710449219,2.53636932373047,450,2.140625,525,2.20182037353516,2.24314880371094,0,NaN
209049931,34,b_2,blue,red,X,no_color_change,no_figure_change,not_first,no_update,correct,411,1419,3425,900,0,2.39928923712836,2.54723358154297,375,2.21385955810547,50,2.27521514892578,2.44476318359375,0,NaN
209049931,36,b_2,red,red,X,no_color_change,figure_change,not_first,update,correct,123,1129,0,350,0,2.23902402605329,2.42383575439453,175,2.07329559326172,325,2.162353515625,2.18535614013672,0,NaN
209049931,38,b_2,blue,red,Y,no_color_change,no_figure_change,not_first,no_update,correct,99,1105,3111,1000,0,2.23007965087891,2.42582702636719,75,1.85024261474609,675,2.33101654052734,2.24601745605469,0,NaN
209049931,39,b_2,blue,red,Y,no_color_change,no_figure_change,not_first,no_update,correct,21,1029,3033,1300,0,2.40919998456847,2.58024597167969,650,2.22652435302734,25,2.22652435302734,2.425048828125,0,NaN
209049931,42,b_3,blue,red,Y,no_color_change,figure_change,not_first,no_update,correct,675,1683,3687,775,0,2.78284764289856,3.07604217529297,75,2.63213348388672,675,2.95981597900391,2.64424133300781,0,NaN
209049931,43,b_3,blue,red,Y,no_color_change,no_figure_change,not_first,no_update,correct,9,1016,3021,3025,0,2.59786971734495,2.70897674560547,150,2.49673461914062,2075,2.65314483642578,2.67225646972656,0,NaN
209049931,50,b_0,blue,blue,X,no_color_change,no_figure_change,not_first,update,correct,6,1012,3018,2050,0,2.27397109801511,2.58316040039062,600,2.00576782226562,425,2.51032257080078,2.13458251953125,0,NaN
209049931,51,b_0,blue,blue,X,no_color_change,no_figure_change,not_first,update,correct,16,1022,3028,2350,0,2.32284205010597,2.54251861572266,2350,2.07880401611328,225,2.18843841552734,2.54251861572266,0,NaN
209049931,52,b_0,blue,blue,X,no_color_change,no_figure_change,not_first,update,correct,229,1235,3241,2275,0,2.28020829739778,2.57933807373047,150,2.02762603759766,1575,2.53359222412109,2.33670806884766,0,NaN
209049931,53,b_0,blue,blue,Y,no_color_change,figure_change,not_first,update,correct,15,1023,3028,3175,0,2.45216852304887,2.62472534179688,2350,2.26296997070312,150,2.33563995361328,2.61157989501953,0,NaN
209049931,55,b_1,blue,blue,Y,no_color_change,figure_change,not_first,update,correct,5,1012,3018,3325,0,2.80165676194794,2.96162414550781,1150,2.58377075195312,2200,2.69779968261719,2.72486877441406,0,NaN
209049931,57,b_1,red,blue,Y,no_color_change,no_figure_change,not_first,no_update,correct,2,1009,3014,2650,0,2.41234861101423,2.55280303955078,1825,2.22648620605469,2375,2.47087097167969,2.2518310546875,0,NaN
209049931,59,b_1,blue,blue,X,no_color_change,figure_change,not_first,update,correct,22,1030,3034,2875,0,2.41938657176738,2.5816650390625,2075,2.08277893066406,2175,2.49268341064453,2.28287506103516,1,125
209049931,63,b_2,red,blue,Y,no_color_change,figure_change,not_first,no_update,correct,16,1023,3030,2950,0,2.41870428591358,2.59304046630859,1775,2.23074340820312,150,2.25542449951172,2.40343475341797,0,NaN
209049931,64,b_2,red,blue,Y,no_color_change,no_figure_change,not_first,no_update,correct,3,1011,3016,2650,0,2.42273283977898,2.65768432617188,925,2.26313018798828,1325,2.38077545166016,2.42977142333984,0,NaN
209049931,67,b_3,red,blue,Y,no_color_change,no_figure_change,not_first,no_update,correct,31,1043,3048,3550,0,2.59615727060849,2.71627044677734,1550,2.46695709228516,25,2.46695709228516,2.53217315673828,0,NaN
209049931,69,b_3,blue,blue,X,no_color_change,no_figure_change,not_first,update,correct,15,1022,3028,3050,0,2.67751164339027,2.76902770996094,1225,2.58302307128906,375,2.63932800292969,2.69589996337891,0,NaN
209049931,71,b_0,red,red,Y,no_color_change,no_figure_change,not_first,update,correct,25,1031,3037,2975,0,2.58648852912747,2.74870300292969,1425,2.41886901855469,2250,2.61695861816406,2.48683166503906,0,NaN
209049931,72,b_0,red,red,Y,no_color_change,no_figure_change,not_first,update,correct,11,1017,0,1150,0,2.9522008481233,3.12117004394531,925,2.81894683837891,450,2.85136413574219,2.87506103515625,0,NaN
209049931,74,b_0,blue,red,X,no_color_change,no_figure_change,not_first,no_update,correct,23,1030,3035,3000,0,2.63394336311185,2.81507110595703,1600,2.42469024658203,2425,2.51663970947266,2.45897674560547,0,NaN
209049931,77,b_1,blue,red,Y,no_color_change,figure_change,not_first,no_update,correct,11,1019,3024,3125,0,2.58115589375399,2.71076202392578,150,2.38398742675781,2150,2.67565155029297,2.50039672851562,0,NaN
209049931,78,b_1,blue,red,X,no_color_change,figure_change,not_first,no_update,correct,19,1027,3033,2525,0,2.43078048861757,2.56124114990234,1325,2.16458129882812,2400,2.39949035644531,2.26886367797852,0,NaN
209049931,79,b_1,blue,red,X,no_color_change,no_figure_change,not_first,no_update,correct,8,1015,3020,2200,0,2.29620228456647,2.44159698486328,875,2.09434509277344,1550,2.14849853515625,2.31532287597656,0,NaN
209049931,83,b_2,red,red,Y,no_color_change,no_figure_change,not_first,update,correct,491,1499,3504,800,0,2.55481488776929,2.84656524658203,150,2.36008453369141,550,2.47732543945312,2.64199066162109,0,NaN
209049931,86,b_2,red,red,X,no_color_change,figure_change,not_first,update,correct,135,1142,3148,2850,0,2.91949805434869,3.12419891357422,1700,2.64510345458984,1475,2.65069580078125,3.03408050537109,0,NaN
209049931,90,b_3,red,red,X,no_color_change,figure_change,not_first,update,correct,22,1030,3035,3150,0,2.52505029950823,2.67154693603516,1875,2.3739013671875,2250,2.51460266113281,2.43836975097656,0,NaN
209049931,92,b_3,blue,red,Y,no_color_change,figure_change,not_first,no_update,correct,22,1029,3034,2850,0,2.39844232675981,2.54111480712891,300,2.19774627685547,2100,2.42293548583984,2.33305358886719,1,275
209049931,94,b_3,red,red,Y,no_color_change,no_figure_change,not_first,update,correct,13,1020,3024,2775,0,2.5228649158867,2.69855499267578,2000,2.30661010742188,2275,2.58426666259766,2.41383457183838,1,200
209049931,96,b_0,blue,blue,Y,no_color_change,no_figure_change,not_first,update,correct,7,1014,3020,3300,0,2.62917491367885,2.73355102539062,2325,2.53089141845703,1525,2.66670989990234,2.71046447753906,0,NaN
209049931,97,b_0,blue,blue,X,no_color_change,figure_change,not_first,update,correct,27,1037,3042,3450,0,2.62454815300143,2.84789276123047,2450,2.45927429199219,1100,2.69586944580078,2.84789276123047,0,NaN
209049931,98,b_0,blue,blue,Y,no_color_change,figure_change,not_first,update,correct,8,1015,3021,3025,0,2.68738812816386,2.84666442871094,2250,2.56755828857422,650,2.75495147705078,2.79457855224609,0,NaN
209049931,104,b_1,red,blue,X,no_color_change,figure_change,not_first,no_update,correct,6,1014,3019,2225,0,2.57698067654385,2.75168609619141,1075,2.27164459228516,1750,2.49613189697266,2.56218719482422,1,250
209049931,105,b_1,red,blue,Y,no_color_change,figure_change,not_first,no_update,correct,21,1029,3035,1975,0,2.53820495605469,2.71724700927734,550,2.38600158691406,1025,2.53427886962891,2.60392761230469,0,NaN
209049931,107,b_2,blue,blue,Y,no_color_change,figure_change,not_first,update,correct,16,1025,3031,2625,0,2.56848775124063,2.74651336669922,875,2.26207733154297,2000,2.55870056152344,2.49188995361328,0,NaN
209049931,109,b_2,red,blue,X,no_color_change,no_figure_change,not_first,no_update,correct,16,1024,3030,1775,0,2.52769061881052,2.63768005371094,1675,2.44868469238281,50,2.486328125,2.61205291748047,0,NaN
209049931,112,b_3,blue,blue,X,no_color_change,figure_change,not_first,update,correct,21,1028,3033,2775,0,2.4525471901407,2.61077880859375,975,2.21917724609375,1650,2.43209838867188,2.29927825927734,0,NaN
209049931,114,b_3,red,blue,Y,no_color_change,figure_change,not_first,no_update,correct,21,1029,3035,2075,0,2.57134728204636,2.75072479248047,725,2.31806945800781,1500,2.45426177978516,2.48970794677734,0,NaN
209049931,117,b_0,red,blue,X,no_color_change,no_figure_change,not_first,no_update,correct,6,1013,3019,2500,0,2.43474882476184,2.627197265625,1075,2.17388916015625,2125,2.44235229492188,2.36142730712891,0,NaN
209049931,118,b_0,red,blue,X,no_color_change,no_figure_change,not_first,no_update,correct,10,1017,3021,2675,0,2.51686625577966,2.71031951904297,1450,2.3128662109375,2200,2.51361083984375,2.46341705322266,0,NaN
209049931,119,b_0,red,blue,X,no_color_change,no_figure_change,not_first,no_update,correct,6,1012,3018,2775,0,2.4784267581239,2.61917877197266,250,2.26927947998047,1900,2.5184326171875,2.53376770019531,0,NaN
209049931,121,b_0,blue,blue,X,no_color_change,figure_change,not_first,update,correct,21,1029,3034,2375,0,2.43799412250519,2.57231903076172,25,2.32198333740234,1375,2.57231903076172,2.43088531494141,0,NaN
209049931,123,b_0,red,blue,Y,no_color_change,no_figure_change,not_first,no_update,correct,21,1028,3032,1775,0,2.24452500873142,2.39639282226562,1800,2.04829406738281,1475,2.28545379638672,2.39639282226562,1,150
209049931,128,b_1,red,blue,X,no_color_change,figure_change,not_first,no_update,correct,4,1010,3016,2550,0,2.33995219639369,2.56539916992188,625,2.06293487548828,2075,2.37468719482422,2.25538635253906,0,NaN
209049931,130,b_1,blue,blue,X,no_color_change,no_figure_change,not_first,update,correct,21,1028,3033,2075,0,2.29362751188732,2.41963958740234,1350,2.11116027832031,1325,2.26889038085938,2.34925842285156,1,175
209049931,138,b_3,blue,blue,Y,no_color_change,no_figure_change,not_first,update,correct,14,1021,3027,2900,0,2.47777534017757,2.57977294921875,450,2.30603790283203,2450,2.51454162597656,2.30603790283203,0,NaN
209049931,141,b_3,blue,blue,Y,no_color_change,no_figure_change,not_first,update,correct,41,1047,3054,1825,0,2.16614898263592,2.42678833007812,1525,1.93179321289062,1275,2.27001953125,2.01239013671875,0,NaN
209049931,143,b_3,red,blue,X,no_color_change,figure_change,not_first,no_update,correct,22,1031,3035,2350,0,2.26201727035198,2.43338012695312,1950,2.02948760986328,1400,2.36445617675781,2.28980255126953,1,125
209049931,144,b_3,red,blue,X,no_color_change,no_figure_change,not_first,no_update,correct,21,1029,3034,2050,0,2.29267511135194,2.51329040527344,1900,2.08390808105469,1525,2.21420288085938,2.35528564453125,0,NaN
209049931,145,b_3,red,blue,X,no_color_change,no_figure_change,not_first,no_update,correct,194,1201,3206,1750,0,2.23203406535404,2.41351318359375,300,2.04879760742188,1625,2.27654266357422,2.09659576416016,1,125
209049931,147,b_0,blue,blue,X,no_color_change,no_figure_change,not_first,update,correct,31,1038,0,1225,0,2.4393070765904,2.61110687255859,875,2.27109527587891,1150,2.48325347900391,2.27892303466797,0,NaN
209049931,150,b_0,blue,blue,Y,no_color_change,figure_change,not_first,update,correct,22,1029,3034,1750,0,2.24055982317243,2.41407775878906,550,2.09493255615234,1350,2.21798706054688,2.36721801757812,0,NaN
209049931,152,b_0,red,blue,Y,no_color_change,figure_change,not_first,no_update,correct,21,1029,3034,1250,0,2.37188720703125,2.66523742675781,1275,2.0616455078125,175,2.09028625488281,2.66523742675781,0,NaN
209049931,154,b_1,blue,blue,Y,no_color_change,figure_change,not_first,update,correct,9,1017,3023,3000,0,2.62916222397162,2.78513336181641,2000,2.3486328125,2150,2.67459106445312,2.41899871826172,0,NaN
209049931,155,b_1,blue,blue,Y,no_color_change,no_figure_change,not_first,update,correct,26,1033,3038,2750,0,2.468340893181,2.66801452636719,1475,2.2510986328125,1800,2.45940399169922,2.40884399414062,0,NaN
209049931,158,b_1,blue,blue,Y,no_color_change,figure_change,not_first,update,correct,4,1011,3017,1700,0,2.26015704611073,2.5277099609375,25,1.99065399169922,1375,2.5277099609375,2.24666595458984,0,NaN
209049931,161,b_2,red,blue,X,no_color_change,no_figure_change,not_first,no_update,correct,8,1015,3021,2875,0,2.45687144143241,2.55445861816406,1950,2.27384185791016,2325,2.53633117675781,2.3861255645752,1,200
209049931,164,b_3,blue,blue,Y,no_color_change,no_figure_change,not_first,update,correct,17,1025,3031,2800,0,2.49245476236149,2.64229583740234,1025,2.20042419433594,2425,2.51540374755859,2.25901794433594,0,NaN
209049931,166,b_3,red,blue,Y,no_color_change,figure_change,not_first,no_update,correct,268,1274,3279,775,0,2.27367579142253,2.44920349121094,750,1.91020202636719,50,2.00667572021484,2.43401336669922,0,NaN
209049931,167,b_3,red,blue,X,no_color_change,figure_change,not_first,no_update,correct,23,1030,0,1625,0,2.37898536095252,2.50299835205078,1300,2.20615386962891,1200,2.4356689453125,2.38248443603516,1,200
209049931,169,b_3,blue,blue,X,no_color_change,figure_change,not_first,update,correct,22,1030,3036,950,0,2.25913338912161,2.59550476074219,800,1.99871063232422,300,2.24470520019531,2.32937622070312,0,NaN
209049931,170,b_3,blue,blue,Y,no_color_change,figure_change,not_first,update,correct,192,1203,3208,750,0,2.25812899271647,2.40766906738281,75,2.00453948974609,700,2.2908935546875,2.37407684326172,0,NaN
209049931,171,b_3,blue,blue,Y,no_color_change,no_figure_change,not_first,update,correct,24,1032,3037,1100,0,2.25102129849521,2.41675567626953,625,1.93924713134766,775,2.40268707275391,2.06169128417969,0,NaN
209049931,172,b_3,blue,blue,Y,no_color_change,no_figure_change,not_first,update,correct,33,1040,3046,1250,0,2.20907600253236,2.46722412109375,125,1.96459197998047,675,2.141357421875,2.16319274902344,0,NaN
209049931,187,b_1,red,red,Y,no_color_change,no_figure_change,not_first,update,correct,5,1012,3018,3125,0,2.47933329368124,2.54685974121094,1900,2.40625,850,2.44700622558594,2.43180084228516,0,NaN
209049931,188,b_1,red,red,X,no_color_change,figure_change,not_first,update,correct,15,1023,3028,2975,0,2.52207176052794,2.63627624511719,1125,2.40546417236328,2000,2.51710510253906,2.47138214111328,0,NaN
209049931,191,b_1,red,red,Y,no_color_change,no_figure_change,not_first,update,correct,2,1010,3015,2700,0,2.4159030135797,2.65383148193359,900,2.18256378173828,1950,2.58738708496094,2.52742767333984,1,150
209049931,196,b_2,blue,red,Y,no_color_change,figure_change,not_first,no_update,correct,7,1015,3019,3450,0,2.83896847160495,2.94303894042969,1125,2.72366333007812,625,2.84017181396484,2.78173065185547,0,NaN
209049931,199,b_3,red,red,X,no_color_change,no_figure_change,not_first,update,correct,143,1151,3157,2800,0,2.56886813105369,2.69858551025391,1075,2.41796112060547,2375,2.46319580078125,2.44393920898438,0,NaN
209049931,200,b_3,red,red,X,no_color_change,no_figure_change,not_first,update,correct,8,1014,0,500,0,2.70855827331543,2.77355194091797,350,2.59860229492188,25,2.59860229492188,2.63394165039062,0,NaN
209049931,201,b_3,red,red,Y,no_color_change,figure_change,not_first,update,correct,1919,2927,4932,2875,0,2.49504634312221,2.62631225585938,25,2.33873748779297,2050,2.62631225585938,2.46246337890625,1,375
209049931,202,b_3,red,red,Y,no_color_change,no_figure_change,not_first,update,correct,9,1016,3021,2525,0,2.36342169314015,2.54034423828125,150,2.17460632324219,2150,2.38646697998047,2.38417053222656,1,275
209049931,206,b_0,red,red,Y,no_color_change,figure_change,not_first,update,correct,12,1019,3025,3375,0,2.69265894987145,2.82462310791016,1200,2.58839416503906,1625,2.82228851318359,2.69799041748047,0,NaN
209049931,209,b_0,red,red,Y,no_color_change,figure_change,not_first,update,correct,22,1028,3033,3400,0,2.94826266230369,3.04835510253906,25,2.82841491699219,1850,3.04835510253906,2.97856903076172,2,162.5
209049931,210,b_0,red,red,Y,no_color_change,no_figure_change,not_first,update,correct,10,1018,3023,3300,0,2.67789988615075,2.8201904296875,1350,2.36525726318359,2400,2.60781860351562,2.45171356201172,0,NaN
209049931,213,b_1,blue,red,Y,no_color_change,figure_change,not_first,no_update,correct,13,1021,3025,3525,0,2.70487438902563,2.80677795410156,1575,2.59526824951172,200,2.65851593017578,2.72189331054688,0,NaN
209049931,214,b_1,blue,red,X,no_color_change,figure_change,not_first,no_update,correct,21,1027,3032,3525,0,2.74901059209084,2.83031463623047,2450,2.66383361816406,225,2.71604919433594,2.83031463623047,0,NaN
209049931,217,b_2,red,red,X,no_color_change,no_figure_change,not_first,update,correct,23,1029,3034,3525,0,2.71422257715342,2.81221008300781,1125,2.60454559326172,1925,2.70050811767578,2.67324066162109,0,NaN
209049931,220,b_2,red,red,X,no_color_change,figure_change,not_first,update,correct,17,1029,3034,3325,0,2.84033849288006,2.95188140869141,1300,2.66281890869141,75,2.67348480224609,2.87609100341797,2,137.5
209049931,224,b_3,red,red,X,no_color_change,no_figure_change,not_first,update,correct,26,1032,3038,2675,0,2.66092837586695,2.82346343994141,1400,2.46389770507812,2150,2.62238311767578,2.57246398925781,0,NaN
209049931,225,b_3,red,red,Y,no_color_change,figure_change,not_first,update,correct,22,1030,3035,3525,0,2.79683638592156,2.93096160888672,1500,2.59551239013672,100,2.61549377441406,2.76506805419922,0,NaN
209049931,226,b_3,red,red,Y,no_color_change,no_figure_change,not_first,update,correct,20,1033,3037,3525,0,2.63079468084841,2.7178955078125,1225,2.52777862548828,1750,2.68634033203125,2.63986206054688,0,NaN
209154863,2,b_0,blue,blue,Y,no_color_change,figure_change,not_first,update,correct,22,1031,3037,3325,0,3.75222653061596,3.98668670654297,1100,3.38294219970703,2725,3.73453521728516,3.60407257080078,0,NaN
209154863,3,b_0,blue,blue,Y,no_color_change,no_figure_change,not_first,update,correct,11,1018,3023,3525,0,3.91378021240234,4.16804504394531,2325,3.62906646728516,300,3.63754272460938,3.96154022216797,2,162.5
209154863,4,b_0,blue,blue,Y,no_color_change,no_figure_change,not_first,update,correct,21,1028,3033,3300,0,3.63108797001659,4.00593566894531,75,3.13317108154297,2350,3.96537017822266,3.78714752197266,0,NaN
209154863,5,b_0,blue,blue,X,no_color_change,figure_change,not_first,update,correct,8,1015,3020,3525,0,4.2220103793674,4.5318603515625,3175,3.77400207519531,50,3.77513885498047,4.45475769042969,0,NaN
209154863,6,b_0,blue,blue,X,no_color_change,no_figure_change,not_first,update,correct,19,1026,3031,3525,0,4.2643074883355,4.47707366943359,2925,4.01579284667969,1625,4.33345031738281,4.3765869140625,0,NaN
209154863,8,b_0,red,blue,Y,no_color_change,no_figure_change,not_first,no_update,correct,16,1022,3028,3525,0,3.80213730423539,3.92999267578125,1300,3.682373046875,1825,3.73973083496094,3.77070617675781,1,150
209154863,10,b_1,blue,blue,Y,no_color_change,figure_change,not_first,update,correct,23,1031,3036,3225,0,4.12264498197115,4.31037139892578,675,3.78744506835938,2125,4.16858673095703,3.83841705322266,0,NaN
209154863,11,b_1,blue,blue,Y,no_color_change,no_figure_change,not_first,update,correct,13,1020,3026,3525,0,3.86009860568576,3.93099212646484,1300,3.77715301513672,2825,3.81572723388672,3.9049072265625,0,NaN
209154863,14,b_1,blue,blue,Y,no_color_change,figure_change,not_first,update,correct,21,1030,3034,3525,0,3.76906433105469,3.93509674072266,75,3.61225128173828,3350,3.88287353515625,3.65422058105469,0,NaN
209154863,15,b_1,blue,blue,X,no_color_change,figure_change,not_first,update,correct,9,1016,3021,3525,0,3.83152505380136,4.0181884765625,2850,3.58207702636719,100,3.60967254638672,3.87712097167969,0,NaN
209154863,16,b_1,blue,blue,X,no_color_change,no_figure_change,not_first,update,correct,21,1028,3034,3525,0,3.81273413764106,3.95439910888672,1025,3.67190551757812,2075,3.85500335693359,3.87473297119141,0,NaN
209154863,20,b_1,red,blue,X,no_color_change,figure_change,not_first,no_update,correct,15,1022,3028,3350,0,3.76636186286585,3.97852325439453,1525,3.30719757080078,3100,3.64426422119141,3.35790252685547,1,200
209154863,22,b_1,blue,blue,X,no_color_change,no_figure_change,not_first,update,correct,14,1022,3028,3525,0,3.62212134467231,3.74497222900391,3375,3.50291442871094,2000,3.73374176025391,3.74497222900391,0,NaN
209154863,26,b_2,blue,blue,X,no_color_change,no_figure_change,not_first,update,correct,12,1020,3024,3525,0,3.70945084183304,3.97642517089844,50,3.28959655761719,3375,3.94082641601562,3.28959655761719,0,NaN
209154863,27,b_2,blue,blue,Y,no_color_change,figure_change,not_first,update,correct,23,1031,3036,3525,0,3.53096059163411,3.94692993164062,3375,3.05904388427734,725,3.31063842773438,3.94692993164062,0,NaN
209154863,29,b_2,red,blue,Y,no_color_change,figure_change,not_first,no_update,correct,21,1029,3034,3425,0,3.64783161304615,4.01693725585938,1400,3.19345092773438,3000,3.49176788330078,3.27758026123047,0,NaN
209154863,32,b_3,blue,blue,Y,no_color_change,no_figure_change,not_first,update,correct,15,1023,3028,3525,0,4.0744576630769,4.34173583984375,600,3.84851837158203,825,4.03910064697266,4.27117919921875,0,NaN
209154863,33,b_3,blue,blue,Y,no_color_change,no_figure_change,not_first,update,correct,4,1011,3016,3175,0,4.27097272872925,4.59101104736328,2400,3.98567962646484,750,4.25091552734375,4.24394989013672,0,NaN
209154863,36,b_3,blue,blue,X,no_color_change,no_figure_change,not_first,update,correct,13,1021,3026,3475,0,4.40692421242043,4.88967895507813,150,3.89773559570312,3250,4.54733276367188,3.93006134033203,2,162.5
209154863,40,b_3,red,blue,X,no_color_change,no_figure_change,not_first,no_update,correct,11,1018,3022,3525,0,3.24734937879774,3.56017303466797,50,2.9366455078125,2025,3.54676818847656,3.42787933349609,0,NaN
209154863,42,b_0,blue,blue,X,no_color_change,no_figure_change,not_first,update,correct,13,1019,3024,3350,0,3.69745425323942,3.87041473388672,2850,3.56204223632812,950,3.79448699951172,3.76043701171875,0,NaN
209154863,43,b_0,blue,blue,X,no_color_change,no_figure_change,not_first,update,correct,21,1028,3034,3525,0,3.65414660418475,3.83682250976562,1600,3.38667297363281,450,3.79463195800781,3.73520660400391,0,NaN
209154863,47,b_0,red,blue,Y,no_color_change,figure_change,not_first,no_update,correct,4,1012,3018,3225,0,3.80394674447867,4.29717254638672,1375,3.16517639160156,2550,3.99214935302734,3.35468292236328,0,NaN
209154863,54,b_2,red,blue,X,no_color_change,no_figure_change,not_first,no_update,correct,633,1639,3644,2400,0,3.51969655354818,3.75602722167969,425,3.02557373046875,25,3.02557373046875,3.38118743896484,0,NaN
209154863,55,b_2,red,blue,X,no_color_change,no_figure_change,not_first,no_update,correct,23,1030,3035,3250,0,3.60926119971821,3.93952178955078,1475,3.17445373535156,50,3.27554321289062,3.56800079345703,0,NaN
209154863,56,b_2,red,blue,X,no_color_change,no_figure_change,not_first,no_update,correct,13,1020,3024,3525,0,3.5894373010706,3.81327056884766,725,3.20903015136719,3375,3.52825927734375,3.20903015136719,0,NaN
209154863,59,b_3,blue,blue,Y,no_color_change,no_figure_change,not_first,update,correct,13,1019,3026,3525,0,3.7452646891276,3.94620513916016,325,3.53178405761719,2575,3.82905578613281,3.59603881835938,0,NaN
209154863,60,b_3,blue,blue,X,no_color_change,figure_change,not_first,update,correct,24,1032,3037,3525,0,3.68270280626085,3.90462493896484,2550,3.46710968017578,550,3.56482696533203,3.72329711914062,0,NaN
209154863,63,b_3,blue,blue,Y,no_color_change,figure_change,not_first,update,correct,11,1018,3023,3525,0,3.62135269730179,3.82662963867188,3325,3.34613037109375,550,3.58895874023438,3.79067230224609,0,NaN
209154863,66,b_3,blue,blue,X,no_color_change,no_figure_change,not_first,update,correct,21,1028,3032,3525,0,3.67405517012985,4.0277099609375,3250,3.3328857421875,450,3.41545104980469,3.96561431884766,0,NaN
209154863,69,b_0,red,blue,X,no_color_change,figure_change,not_first,no_update,correct,5,1013,3019,3500,0,4.02791668927228,4.15912628173828,1500,3.90248870849609,400,4.11296844482422,4.02454376220703,1,125
209154863,70,b_0,red,blue,X,no_color_change,no_figure_change,not_first,no_update,correct,17,1024,3030,3525,0,3.70196408872251,4.03712463378906,750,3.28434753417969,2300,3.9852294921875,3.51316833496094,0,NaN
209154863,71,b_0,red,blue,X,no_color_change,no_figure_change,not_first,no_update,correct,6,1013,3019,3500,0,3.59343462343569,3.82157135009766,1450,3.38649749755859,2675,3.51609802246094,3.62147521972656,1,150
209154863,73,b_1,blue,blue,Y,no_color_change,no_figure_change,not_first,update,correct,7,1014,3018,3500,0,3.66535667136863,3.78143310546875,1375,3.5504150390625,2100,3.68852996826172,3.71998596191406,0,NaN
209154863,74,b_1,blue,blue,X,no_color_change,figure_change,not_first,update,correct,15,1024,3029,3525,0,3.78141767713759,3.99605560302734,2575,3.64222717285156,700,3.69304656982422,3.92000579833984,0,NaN
209154863,76,b_1,red,blue,X,no_color_change,no_figure_change,not_first,no_update,correct,14,1021,3027,3425,0,3.55160516809534,3.81765747070312,3150,3.24917602539062,625,3.60951995849609,3.74560546875,0,NaN
209154863,77,b_1,red,blue,Y,no_color_change,figure_change,not_first,no_update,correct,3,1010,3014,3500,0,3.72098744710286,3.9080810546875,2825,3.52371215820312,350,3.71199798583984,3.89619445800781,0,NaN
209154863,79,b_2,blue,blue,Y,no_color_change,no_figure_change,not_first,update,correct,180,1189,3195,3450,0,3.48220672607422,3.64562225341797,2550,3.22318267822266,1075,3.59504699707031,3.57506561279297,1,150
209154863,81,b_2,red,blue,X,no_color_change,figure_change,not_first,no_update,correct,10,1019,3023,3525,0,3.72896072952836,3.85752868652344,525,3.59729766845703,3125,3.72141265869141,3.63235473632813,0,NaN
209154863,83,b_2,blue,blue,Y,no_color_change,figure_change,not_first,update,correct,9,1017,3022,3075,0,3.24441826052782,3.47502136230469,125,2.98764801025391,2000,3.358154296875,3.33106231689453,0,NaN
209154863,84,b_2,blue,blue,Y,no_color_change,no_figure_change,not_first,update,correct,19,1025,3031,3375,0,3.4229413067853,3.58605194091797,2450,3.22453308105469,2050,3.32613372802734,3.47891235351562,1,175
209154863,85,b_2,blue,blue,Y,no_color_change,no_figure_change,not_first,update,correct,6,1014,3019,3500,0,3.73895674040823,3.92433166503906,2425,3.46407318115234,300,3.50614929199219,3.74411010742188,0,NaN
209154863,86,b_2,blue,blue,Y,no_color_change,no_figure_change,not_first,update,correct,15,1021,3027,3450,0,3.44148118760851,3.63600921630859,1775,3.25843048095703,600,3.60354614257812,3.52252960205078,0,NaN
209154863,91,b_3,red,blue,Y,no_color_change,no_figure_change,not_first,no_update,correct,13,1020,3025,3525,0,3.52732916937934,3.68811798095703,2825,3.28550720214844,700,3.55046081542969,3.56153106689453,0,NaN
209154863,94,b_3,red,blue,X,no_color_change,figure_change,not_first,no_update,correct,22,1029,3037,3425,0,3.50319377757885,3.75190734863281,1400,3.22170257568359,2375,3.61981964111328,3.46669769287109,0,NaN
209154863,95,b_3,red,blue,Y,no_color_change,figure_change,not_first,no_update,correct,10,1016,3021,3450,0,3.46887986924913,3.81990051269531,2000,3.04364013671875,3100,3.45311737060547,3.1907958984375,0,NaN
209154863,98,b_0,blue,red,Y,no_color_change,no_figure_change,not_first,no_update,correct,14,1021,0,1975,0,3.96160627920416,4.19191741943359,1825,3.60772705078125,25,3.60772705078125,4.14556121826172,0,NaN
209154863,99,b_0,blue,red,Y,no_color_change,no_figure_change,not_first,no_update,correct,1576,2583,4588,675,0,3.71551949637277,3.82770538330078,125,3.6165771484375,675,3.77770233154297,3.68917846679688,0,NaN
209154863,101,b_1,red,red,Y,no_color_change,figure_change,not_first,update,correct,25,1033,3038,3475,0,3.66595199019821,3.89531707763672,1275,3.37063598632812,2600,3.84033203125,3.61756134033203,0,NaN
209154863,102,b_1,red,red,Y,no_color_change,no_figure_change,not_first,update,correct,13,1020,3026,3525,0,3.76209343804253,3.88273620605469,2900,3.62345123291016,25,3.62345123291016,3.78860473632812,0,NaN
209154863,103,b_1,red,red,X,no_color_change,figure_change,not_first,update,correct,21,1028,3033,3525,0,3.9095465766059,4.15476989746094,2400,3.65225982666016,100,3.72119140625,3.7960205078125,0,NaN
209154863,105,b_1,blue,red,X,no_color_change,figure_change,not_first,no_update,correct,20,1027,3031,3525,0,4.52308287443938,4.80614471435547,2175,4.25379180908203,525,4.52657318115234,4.64279937744141,0,NaN
209154863,107,b_1,red,red,Y,no_color_change,figure_change,not_first,update,correct,21,1027,3032,3525,0,3.65454022442853,3.87868499755859,1475,3.47920227050781,2725,3.63773345947266,3.60270690917969,0,NaN
209154863,112,b_2,blue,red,X,no_color_change,no_figure_change,not_first,no_update,correct,13,1020,3026,3525,0,3.82932349310981,3.97197723388672,625,3.67695617675781,1650,3.92946624755859,3.83560943603516,0,NaN
209154863,113,b_2,blue,red,X,no_color_change,no_figure_change,not_first,no_update,correct,21,1029,3035,3525,0,3.74805184823495,3.92475891113281,2200,3.56666564941406,700,3.80237579345703,3.81484222412109,0,NaN
209154863,115,b_3,red,red,X,no_color_change,figure_change,not_first,update,correct,9,1017,3022,3525,0,3.87643785829897,4.06254577636719,2500,3.65876007080078,300,3.73609924316406,3.90070343017578,1,150
209154863,116,b_3,red,red,X,no_color_change,no_figure_change,not_first,update,correct,24,1034,3039,3175,0,3.62500548362732,3.97078704833984,875,3.06227874755859,2900,3.83100891113281,3.20070648193359,0,NaN
209154863,117,b_3,red,red,Y,no_color_change,figure_change,not_first,update,correct,6,1015,3019,3500,0,3.54021188241464,3.80877685546875,1350,3.21488952636719,150,3.23912048339844,3.44764709472656,0,NaN
209154863,120,b_3,red,red,X,no_color_change,figure_change,not_first,update,correct,15,1022,3027,3525,0,3.54817256221065,3.68463897705078,1400,3.37692260742188,350,3.49462127685547,3.53048706054688,0,NaN
209154863,121,b_3,red,red,Y,no_color_change,figure_change,not_first,update,correct,3,1010,3015,3350,0,3.58610280354818,3.86795043945312,2750,3.35252380371094,900,3.53311920166016,3.70039367675781,0,NaN
209154863,123,b_0,red,red,Y,no_color_change,figure_change,not_first,update,correct,12,1019,3025,3175,0,3.7636186494602,3.95845794677734,1975,3.59146118164062,2700,3.75445556640625,3.75424957275391,0,NaN
209154863,124,b_0,red,red,X,no_color_change,figure_change,not_first,update,correct,22,1028,3034,2600,0,3.92981509254092,4.084228515625,1350,3.75611877441406,25,3.75611877441406,3.81697845458984,0,NaN
209154863,127,b_0,red,red,Y,no_color_change,no_figure_change,not_first,update,correct,187,1196,3201,3375,0,3.60706103289569,3.77881622314453,3375,3.34791564941406,875,3.64131927490234,3.77881622314453,1,125
209154863,129,b_0,blue,red,X,no_color_change,no_figure_change,not_first,no_update,correct,6,1013,3018,3500,0,3.8058999520761,4.11215972900391,2200,3.47340393066406,25,3.47340393066406,3.71404266357422,0,NaN
209154863,130,b_0,blue,red,X,no_color_change,no_figure_change,not_first,no_update,correct,16,1024,3029,3525,0,3.40128129901308,3.55835723876953,100,3.23234558105469,1000,3.55835723876953,3.38623046875,0,NaN
209154863,131,b_0,blue,red,X,no_color_change,no_figure_change,not_first,no_update,correct,4,1011,3016,3275,0,3.3986140164462,3.58013153076172,1275,3.18595886230469,3250,3.42497253417969,3.23582458496094,1,275
209154863,137,b_1,red,red,Y,no_color_change,figure_change,not_first,update,correct,21,1028,3033,3525,0,3.6514400906033,3.80806732177734,1500,3.48578643798828,325,3.50804901123047,3.69930267333984,1,150
209154863,138,b_1,red,red,Y,no_color_change,no_figure_change,not_first,update,correct,12,1019,3024,3400,0,3.53999975698966,3.63687133789062,2750,3.42732238769531,3275,3.46675872802734,3.50614166259766,0,NaN
209154863,139,b_1,red,red,Y,no_color_change,no_figure_change,not_first,update,correct,21,1029,3033,3250,0,3.50793020233853,3.67685699462891,2100,3.31043243408203,150,3.40615081787109,3.64994812011719,0,NaN
209154863,142,b_2,blue,red,Y,no_color_change,figure_change,not_first,no_update,correct,6,1016,3021,3325,0,3.89172219871578,4.05875396728516,625,3.65141296386719,2675,3.72966003417969,3.97496032714844,0,NaN
209154863,148,b_3,blue,red,Y,no_color_change,no_figure_change,not_first,no_update,correct,7,1015,3021,3525,0,3.6453864203559,3.75172424316406,1300,3.54944610595703,1950,3.64949798583984,3.66748046875,1,300
209154863,149,b_3,blue,red,X,no_color_change,figure_change,not_first,no_update,correct,19,1025,3030,3525,0,3.67339132803458,3.83372497558594,1500,3.41436004638672,775,3.63231658935547,3.74717712402344,0,NaN
209154863,150,b_3,blue,red,Y,no_color_change,figure_change,not_first,no_update,correct,5,1011,3017,3325,0,3.53272218846563,3.6888427734375,50,3.28471374511719,2375,3.67636108398438,3.58321380615234,0,NaN
209154863,185,b_2,blue,red,X,no_color_change,figure_change,not_first,no_update,correct,2,1011,3015,3500,0,3.89350614194517,4.02377319335938,3275,3.74873352050781,400,3.91135406494141,3.97982788085938,0,NaN
209154863,186,b_2,blue,red,Y,no_color_change,figure_change,not_first,no_update,correct,14,1021,3026,3525,0,3.96445148609303,4.22001647949219,2675,3.63829040527344,600,3.86896514892578,4.02348327636719,0,NaN
209154863,187,b_2,blue,red,X,no_color_change,figure_change,not_first,no_update,correct,21,1029,3036,3525,0,3.72817207618996,4.13421630859375,100,3.47847747802734,1775,4.12471008300781,3.78256225585938,0,NaN
209154863,188,b_2,blue,red,X,no_color_change,no_figure_change,not_first,no_update,correct,12,1020,3026,3375,0,3.75419221100984,4.23023986816406,2225,3.43341064453125,875,3.85654449462891,3.6241455078125,0,NaN
314919309,3,b_0,blue,red,Y,no_color_change,no_figure_change,not_first,no_update,correct,8,1016,3021,3100,0,3.48350036353396,3.61744689941406,25,3.35988616943359,1400,3.61744689941406,3.58235931396484,0,NaN
314919309,4,b_0,blue,red,X,no_color_change,figure_change,not_first,no_update,correct,210,1217,3222,2825,0,3.38269184753958,3.55522155761719,1575,3.22254943847656,2250,3.53885650634766,3.50078582763672,0,NaN
314919309,6,b_0,red,red,Y,no_color_change,no_figure_change,not_first,update,correct,2198,3205,5211,2750,0,3.58882967047735,3.99089050292969,175,3.44142150878906,950,3.46567535400391,3.51880645751953,0,NaN
314919309,8,b_1,red,red,X,no_color_change,figure_change,not_first,update,correct,6,1013,3018,2925,0,3.36019335295025,3.594970703125,1025,3.24227905273438,450,3.28535461425781,3.33090972900391,1,125
314919309,10,b_1,blue,red,X,no_color_change,figure_change,not_first,no_update,correct,228,1236,3240,2975,0,3.33756938733553,3.55239105224609,1800,3.17732238769531,2775,3.40133666992188,3.24520111083984,0,NaN
314919309,13,b_1,blue,red,X,no_color_change,figure_change,not_first,no_update,correct,20,1028,3032,3225,0,3.37300588373552,3.48108673095703,1550,3.23934173583984,500,3.38829803466797,3.36452484130859,1,200
314919309,16,b_1,blue,red,Y,no_color_change,figure_change,not_first,no_update,correct,9,1017,3022,3025,0,3.35300017239755,3.48456573486328,1625,3.21610260009766,2825,3.26554107666016,3.24073028564453,0,NaN
314919309,21,b_1,blue,red,Y,no_color_change,no_figure_change,not_first,no_update,correct,15,1021,3026,3300,0,3.65501410501045,3.82772064208984,2825,3.53123474121094,2250,3.63970184326172,3.80171966552734,0,NaN
314919309,24,b_2,blue,red,Y,no_color_change,figure_change,not_first,no_update,correct,19,1025,3031,3100,0,3.59636443957948,3.71598052978516,1575,3.47048950195312,2150,3.63623809814453,3.58253479003906,0,NaN
314919309,29,b_3,red,red,X,no_color_change,figure_change,not_first,update,correct,14,1022,3028,3025,0,3.65665134630705,3.78512573242188,1550,3.52048492431641,2800,3.61788940429688,3.53518676757812,0,NaN
314919309,30,b_3,red,red,Y,no_color_change,figure_change,not_first,update,correct,4,1011,3017,2975,0,3.51599388791804,3.75098419189453,2850,3.33811950683594,2200,3.44020080566406,3.75098419189453,0,NaN
314919309,33,b_3,red,red,X,no_color_change,figure_change,not_first,update,correct,4,1009,3015,2675,0,3.34612754539207,3.49526977539062,2275,3.23611450195312,25,3.23611450195312,3.34309387207031,0,NaN
314919309,35,b_3,blue,red,X,no_color_change,no_figure_change,not_first,no_update,correct,26,1033,3038,3275,0,3.43492993137293,3.59192657470703,1675,3.31405639648438,2675,3.47544860839844,3.32646179199219,1,200
314919309,36,b_3,blue,red,Y,no_color_change,figure_change,not_first,no_update,correct,13,1020,3026,2725,0,3.37723898231436,3.57082366943359,1475,3.22303009033203,2350,3.42401123046875,3.30636596679688,0,NaN
314919309,41,b_3,blue,red,X,no_color_change,no_figure_change,not_first,no_update,correct,21,1027,3032,2875,0,3.3498011806555,3.64105987548828,2850,3.15595245361328,2000,3.41699981689453,3.64105987548828,1,125
314919309,43,b_3,red,red,X,no_color_change,no_figure_change,not_first,update,correct,2793,3800,5805,250,0,3.32830810546875,3.43523406982422,250,3.19242095947266,25,3.19242095947266,3.41799926757812,0,NaN
314919309,46,b_0,red,blue,Y,no_color_change,no_figure_change,not_first,no_update,correct,17,1023,3028,2600,0,3.32607051304408,3.44187927246094,925,3.16488647460938,2425,3.29677581787109,3.28487396240234,1,175
314919309,47,b_0,red,blue,X,no_color_change,figure_change,not_first,no_update,correct,5,1013,3018,3050,0,3.38582798472622,3.53994750976562,1500,3.27943420410156,575,3.527099609375,3.30747222900391,0,NaN
314919309,48,b_0,red,blue,X,no_color_change,no_figure_change,not_first,no_update,correct,16,1024,3029,3300,0,3.25829141181812,3.35948181152344,1650,3.17292022705078,2100,3.24965667724609,3.29619598388672,0,NaN
314919309,49,b_0,red,blue,Y,no_color_change,figure_change,not_first,no_update,correct,4,1012,3017,3075,0,3.25954002246522,3.33352661132812,25,3.15683746337891,2050,3.33352661132812,3.27020263671875,1,150
314919309,50,b_0,red,blue,X,no_color_change,figure_change,not_first,no_update,correct,240,1247,3252,3250,0,3.17768923441569,3.34800720214844,375,3.02755737304688,950,3.29582214355469,3.18904113769531,1,200
314919309,54,b_1,blue,blue,X,no_color_change,no_figure_change,not_first,update,correct,22,1028,3034,3050,0,3.22339871055201,3.42955780029297,1750,3.01296234130859,350,3.21047210693359,3.25264739990234,0,NaN
314919309,55,b_1,blue,blue,X,no_color_change,no_figure_change,not_first,update,correct,10,1017,3023,3000,0,3.1457863523249,3.32539367675781,1750,3.00351715087891,700,3.30777740478516,3.13314056396484,0,NaN
314919309,56,b_1,blue,blue,Y,no_color_change,figure_change,not_first,update,correct,20,1027,3031,2875,0,3.13738946747362,3.26446533203125,2775,2.94760131835938,1100,3.23457336425781,3.20758819580078,0,NaN
314919309,59,b_1,blue,blue,Y,no_color_change,no_figure_change,not_first,update,correct,22,1028,3034,3075,0,3.2727040742573,3.45289611816406,200,3.1492919921875,800,3.44529724121094,3.25002288818359,1,150
314919309,62,b_1,blue,blue,X,no_color_change,figure_change,not_first,update,correct,15,1021,3027,3075,0,3.20075754533734,3.36344909667969,1825,3.04645538330078,2850,3.11566162109375,3.04645538330078,0,NaN
314919309,64,b_1,red,blue,Y,no_color_change,figure_change,not_first,no_update,correct,13,1020,3025,3100,0,3.109021237022,3.26999664306641,1650,2.89759063720703,2825,3.00312042236328,2.96696472167969,0,NaN
314919309,65,b_1,red,blue,X,no_color_change,figure_change,not_first,no_update,correct,130,1139,3144,2575,0,3.06202154893142,3.31986999511719,2050,2.84946441650391,550,2.91837310791016,2.93001556396484,0,NaN
314919309,66,b_1,red,blue,Y,no_color_change,figure_change,not_first,no_update,correct,11,1017,3023,3125,0,3.27503565379551,3.46089172363281,1775,2.99600982666016,50,2.99600982666016,3.29478454589844,1,200
314919309,68,b_2,blue,blue,Y,no_color_change,no_figure_change,not_first,update,correct,9,1017,3022,2850,0,3.46549914176004,3.70262908935547,1725,3.20561981201172,625,3.39881896972656,3.53075408935547,0,NaN
314919309,72,b_2,red,blue,X,no_color_change,figure_change,not_first,no_update,correct,7,1015,3020,2925,0,3.19860424911767,3.36654663085938,1575,3.07109069824219,125,3.14344024658203,3.25595855712891,0,NaN
314919309,73,b_2,red,blue,Y,no_color_change,figure_change,not_first,no_update,correct,15,1021,3027,3125,0,3.21365450139631,3.43015289306641,2775,3.01480865478516,700,3.37794494628906,3.37236785888672,0,NaN
314919309,77,b_3,blue,blue,Y,no_color_change,figure_change,not_first,update,correct,12,1020,3025,2375,0,3.42608241031044,3.58258819580078,1725,3.24634552001953,225,3.27719116210938,3.52311706542969,0,NaN
314919309,79,b_3,red,blue,Y,no_color_change,figure_change,not_first,no_update,correct,11,1018,3023,3025,0,3.43851236711469,3.67269134521484,1650,3.27895355224609,2825,3.36550903320312,3.33226013183594,1,150
314919309,80,b_3,red,blue,X,no_color_change,figure_change,not_first,no_update,correct,22,1030,3034,3300,0,3.15031627186558,3.34617614746094,2425,3.04203796386719,625,3.16629791259766,3.15153503417969,1,175
314919309,82,b_3,blue,blue,X,no_color_change,figure_change,not_first,update,correct,24,1034,3040,1950,0,3.3577948461605,3.53800964355469,1575,3.20873260498047,150,3.26670837402344,3.28500366210938,0,NaN
314919309,84,b_0,red,red,Y,no_color_change,no_figure_change,not_first,update,correct,166,1173,3184,2425,0,3.66896072699099,3.80353546142578,300,3.44772338867188,2050,3.61977386474609,3.70986175537109,1,250
314919309,87,b_0,red,red,X,no_color_change,figure_change,not_first,update,correct,2,1010,3015,3300,0,3.64582891631545,3.77693939208984,750,3.50998687744141,1850,3.68424224853516,3.59374237060547,0,NaN
314919309,92,b_0,red,red,Y,no_color_change,no_figure_change,not_first,update,correct,13,1021,3026,2750,0,3.36307525634766,3.5186767578125,1125,3.19280242919922,1400,3.48342132568359,3.27363586425781,0,NaN
314919309,94,b_0,blue,red,Y,no_color_change,figure_change,not_first,no_update,correct,73,1079,3085,1850,0,3.4602821858724,3.83268737792969,1650,3.16474151611328,25,3.16474151611328,3.66244506835938,0,NaN
314919309,98,b_1,blue,red,X,no_color_change,no_figure_change,not_first,no_update,correct,23,1030,3036,2450,0,3.64633544610471,3.77957916259766,25,3.55934906005859,2325,3.77957916259766,3.61764526367188,1,125
314919309,99,b_1,blue,red,Y,no_color_change,figure_change,not_first,no_update,correct,438,1445,3450,200,0,3.61943912506104,3.70120239257812,50,3.47212982177734,125,3.66291046142578,3.69134521484375,0,NaN
314919309,100,b_1,blue,red,X,no_color_change,figure_change,not_first,no_update,correct,335,1343,3348,850,0,3.76820656912667,3.87899017333984,400,3.59468078613281,150,3.71232604980469,3.79734039306641,0,NaN
314919309,102,b_1,red,red,X,no_color_change,figure_change,not_first,update,correct,149,1157,3162,1625,0,3.53213442288912,3.73818206787109,250,3.27924346923828,1225,3.28593444824219,3.48738098144531,1,225
314919309,103,b_1,red,red,X,no_color_change,no_figure_change,not_first,update,correct,22,1029,3034,2050,0,3.61457908444288,3.77204132080078,1275,3.47968292236328,675,3.49565887451172,3.68449401855469,1,275
314919309,106,b_2,red,red,Y,no_color_change,figure_change,not_first,update,correct,23,1032,3036,2750,0,3.58271997625178,3.79596710205078,200,3.39701843261719,650,3.60358428955078,3.75705718994141,0,NaN
314919309,107,b_2,red,red,Y,no_color_change,no_figure_change,not_first,update,correct,23,1031,3036,2825,0,3.71481600060927,3.98184204101562,2250,3.46375274658203,500,3.773193359375,3.79595947265625,0,NaN
314919309,108,b_2,red,red,Y,no_color_change,no_figure_change,not_first,update,correct,259,1266,3272,2850,0,3.7634030726918,3.96399688720703,225,3.55020904541016,2225,3.80770874023438,3.77198028564453,1,150
314919309,109,b_2,red,red,Y,no_color_change,no_figure_change,not_first,update,correct,20,1027,3031,3050,0,3.62516958671704,3.80369567871094,75,3.39911651611328,2575,3.78191375732422,3.47563934326172,0,NaN
314919309,110,b_2,red,red,Y,no_color_change,no_figure_change,not_first,update,correct,8,1014,3021,3275,0,3.52162391261051,3.68075561523438,275,3.36485290527344,2400,3.52425384521484,3.49044799804688,0,NaN
314919309,111,b_2,red,red,Y,no_color_change,no_figure_change,not_first,update,correct,14,1022,3027,2900,0,3.52256768209892,3.73769378662109,700,3.34660339355469,1450,3.50904846191406,3.51530456542969,0,NaN
314919309,112,b_2,red,red,X,no_color_change,figure_change,not_first,update,correct,7,1014,3019,3275,0,3.48168871695535,3.65345001220703,2350,3.32699584960938,600,3.5224609375,3.38380432128906,1,125
314919309,114,b_2,blue,red,X,no_color_change,no_figure_change,not_first,no_update,correct,4,1011,0,1900,0,3.58501283746017,3.64277648925781,1575,3.49126434326172,25,3.49126434326172,3.61380767822266,1,250
314919309,116,b_2,red,red,X,no_color_change,figure_change,not_first,update,correct,22,1028,3033,2800,0,3.47599471775831,3.61251068115234,125,3.31855010986328,2425,3.57160186767578,3.42103576660156,1,150
314919309,118,b_2,blue,red,Y,no_color_change,figure_change,not_first,no_update,correct,20,1029,3033,2925,0,3.60985745881733,3.74729156494141,1625,3.42033386230469,1875,3.54367828369141,3.71047210693359,0,NaN
314919309,119,b_2,blue,red,Y,no_color_change,no_figure_change,not_first,no_update,correct,8,1014,3019,2875,0,3.67422204268606,3.89208984375,1675,3.49668884277344,700,3.65642547607422,3.68705749511719,0,NaN
314919309,125,b_3,blue,red,X,no_color_change,figure_change,not_first,no_update,correct,21,1028,3034,3175,0,3.575809378373,3.67390441894531,1675,3.48943328857422,375,3.53372192382812,3.55896759033203,0,NaN
314919309,126,b_3,blue,red,X,no_color_change,no_figure_change,not_first,no_update,correct,47,1054,3059,3100,0,3.50939071387575,3.69320678710938,275,3.33432006835938,2350,3.60561370849609,3.46359252929688,0,NaN
314919309,127,b_3,blue,red,Y,no_color_change,figure_change,not_first,no_update,correct,22,1029,3034,3000,0,3.50887365508498,3.7196044921875,2450,3.32311248779297,2850,3.53840637207031,3.32311248779297,1,125
314919309,130,b_3,blue,red,Y,no_color_change,no_figure_change,not_first,no_update,correct,6,1012,3017,3075,0,3.52190894411321,3.66966247558594,1850,3.34487915039062,2325,3.55970764160156,3.43321228027344,0,NaN
314919309,134,b_3,red,red,X,no_color_change,figure_change,not_first,update,correct,65,1071,3077,2250,0,3.43861724518158,3.64797210693359,1800,3.26324462890625,1550,3.49293518066406,3.28933715820312,0,NaN
314919309,138,b_0,red,red,X,no_color_change,no_figure_change,not_first,update,correct,235,1246,0,2175,0,3.43993798617659,3.57578277587891,1825,3.31524658203125,50,3.39499664306641,3.47012329101562,0,NaN
314919309,139,b_0,red,red,Y,no_color_change,figure_change,not_first,update,correct,1093,2100,4106,3175,0,3.67482770953262,4.10912322998047,75,3.24577331542969,25,3.24577331542969,3.47024536132812,0,NaN
314919309,142,b_1,red,red,X,no_color_change,no_figure_change,not_first,update,correct,56,1062,3067,3000,0,3.4853395830121,3.69852447509766,1250,3.35293579101562,1675,3.41455078125,3.40531921386719,0,NaN
314919309,143,b_1,red,red,Y,no_color_change,figure_change,not_first,update,correct,27,1038,3042,3300,0,3.36580370183577,3.50137329101562,2000,3.26093292236328,2250,3.39347839355469,3.43367767333984,0,NaN
314919309,148,b_2,red,red,X,no_color_change,figure_change,not_first,update,correct,10,1020,3024,3300,0,3.44156365645559,3.60609436035156,1975,3.29058074951172,2650,3.34354400634766,3.35548400878906,0,NaN
314919309,149,b_2,red,red,Y,no_color_change,figure_change,not_first,update,correct,21,1030,3035,2975,0,3.31726763541238,3.44805908203125,25,3.13113403320312,2100,3.44805908203125,3.28651428222656,0,NaN
314919309,151,b_2,blue,red,X,no_color_change,figure_change,not_first,no_update,correct,20,1028,3033,3250,0,3.27295403731497,3.41644287109375,1825,3.13650512695312,2375,3.29539489746094,3.28244781494141,0,NaN
314919309,152,b_2,blue,red,Y,no_color_change,figure_change,not_first,no_update,correct,6,1014,3019,3300,0,3.32558347467791,3.44586944580078,1800,3.22910308837891,100,3.23408508300781,3.41344451904297,0,NaN
314919309,153,b_2,blue,red,X,no_color_change,figure_change,not_first,no_update,correct,18,1025,3030,3250,0,3.32795109665185,3.46852111816406,1725,3.16013336181641,2150,3.33078002929688,3.31653594970703,0,NaN
314919309,154,b_2,blue,red,X,no_color_change,no_figure_change,not_first,no_update,correct,5,1011,3017,3150,0,3.30005090278492,3.42176055908203,1125,3.15809631347656,2200,3.27491760253906,3.28643798828125,0,NaN
314919309,156,b_2,red,red,X,no_color_change,figure_change,not_first,update,correct,3,1009,3014,3275,0,3.275101644951,3.45063018798828,775,3.05229949951172,2425,3.37425994873047,3.13645935058594,0,NaN
314919309,159,b_2,red,red,X,no_color_change,no_figure_change,not_first,update,correct,12,1019,3025,3025,0,3.24675549958882,3.43507385253906,775,3.04757690429688,2225,3.23954772949219,3.14734649658203,0,NaN
314919309,164,b_3,red,red,X,no_color_change,no_figure_change,not_first,update,correct,16,1025,3030,2950,0,3.45698634365149,3.62802124023438,1600,3.20439910888672,2500,3.43267822265625,3.32114410400391,0,NaN
314919309,167,b_3,red,red,X,no_color_change,no_figure_change,not_first,update,correct,27,1036,3042,3400,0,3.21505841037683,3.42665863037109,25,2.98268890380859,1825,3.42665863037109,3.30559539794922,0,NaN
314919309,169,b_3,blue,red,Y,no_color_change,no_figure_change,not_first,no_update,correct,22,1028,3033,3100,0,3.29538405568976,3.46914672851562,1675,3.14696502685547,600,3.29363250732422,3.33799743652344,0,NaN
314919309,171,b_0,blue,blue,Y,no_color_change,no_figure_change,not_first,update,correct,10,1017,3022,3375,0,3.90985716434947,4.0469970703125,2050,3.71637725830078,2600,3.88634490966797,3.77250671386719,0,NaN
314919309,172,b_0,blue,blue,Y,no_color_change,no_figure_change,not_first,update,correct,21,1030,3034,3525,0,3.81498932420162,3.90205383300781,2675,3.73388671875,1975,3.84011840820312,3.88928985595703,0,NaN
314919309,173,b_0,blue,blue,Y,no_color_change,no_figure_change,not_first,update,correct,14,1026,3030,3325,0,3.88115936413146,4.0140380859375,350,3.78059387207031,750,3.92276763916016,3.96971893310547,0,NaN
314919309,175,b_1,blue,blue,Y,no_color_change,no_figure_change,not_first,update,correct,188,1201,3205,3150,0,3.82806035092002,4.08470916748047,2850,3.59668731689453,1575,3.70652008056641,4.08470916748047,0,NaN
314919309,176,b_1,blue,blue,X,no_color_change,figure_change,not_first,update,correct,20,1028,3034,3050,0,3.81904936673348,4.10112762451172,350,3.6065673828125,1225,4.06167602539062,3.6568603515625,0,NaN
314919309,178,b_1,red,blue,X,no_color_change,figure_change,not_first,no_update,correct,20,1029,3033,3300,0,3.43382688154254,3.53562164306641,575,3.28913116455078,2200,3.44808197021484,3.45519256591797,1,300
314919309,179,b_1,red,blue,X,no_color_change,no_figure_change,not_first,no_update,correct,13,1023,3028,3300,0,3.47133783708539,3.63117218017578,1825,3.29991912841797,1575,3.40901947021484,3.44407653808594,0,NaN
314919309,182,b_2,blue,blue,Y,no_color_change,figure_change,not_first,update,correct,11,1020,3026,3250,0,3.50601905688905,3.69450378417969,1825,3.39659118652344,2400,3.54437255859375,3.50286865234375,1,150
314919309,184,b_2,red,blue,Y,no_color_change,figure_change,not_first,no_update,correct,10,1018,3024,3250,0,3.42750877246522,3.61578369140625,1725,3.27878570556641,125,3.31423187255859,3.53357696533203,0,NaN
314919309,187,b_2,red,blue,Y,no_color_change,no_figure_change,not_first,no_update,correct,15,1022,3027,3350,0,3.61681640357302,3.77564239501953,1950,3.45220947265625,2550,3.55751037597656,3.49871063232422,0,NaN
314919309,192,b_3,red,blue,Y,no_color_change,no_figure_change,not_first,no_update,correct,69,1076,3081,2975,0,3.42104031746848,3.62953948974609,300,3.21588897705078,2100,3.37710571289062,3.36284637451172,0,NaN
318657061,6,b_1,red,red,X,no_color_change,figure_change,not_first,update,correct,11,1020,3026,3350,0,3.18264185587565,3.35398864746094,1825,2.98009490966797,2575,3.25413513183594,3.15740966796875,0,NaN
318657061,7,b_1,red,red,Y,no_color_change,figure_change,not_first,update,correct,21,1029,3033,3300,0,3.26321913401286,3.39778900146484,2225,3.07915496826172,2825,3.22046661376953,3.29636383056641,0,NaN
318657061,8,b_1,red,red,Y,no_color_change,no_figure_change,not_first,update,correct,10,1018,3023,3150,0,3.05612360636393,3.41786956787109,250,2.71223449707031,2600,3.24004364013672,2.99110412597656,0,NaN
318657061,10,b_2,red,red,Y,no_color_change,figure_change,not_first,update,correct,9,1017,3024,3325,0,3.15337104797363,3.42833709716797,375,2.85626220703125,700,3.280029296875,2.93933868408203,0,NaN
318657061,15,b_2,red,red,X,no_color_change,figure_change,not_first,update,correct,13,1020,3026,3325,0,3.14172700246175,3.37474822998047,2025,2.84413146972656,2550,3.15231323242188,2.94435119628906,0,NaN
318657061,17,b_2,blue,red,X,no_color_change,no_figure_change,not_first,no_update,correct,10,1018,3023,3475,0,3.78501822153727,3.89067077636719,2400,3.63125610351562,150,3.67912292480469,3.84022521972656,2,175
318657061,21,b_2,red,red,Y,no_color_change,figure_change,not_first,update,correct,7,1015,3020,2950,0,2.99330639238117,3.25646209716797,1925,2.6195068359375,2700,3.00993347167969,2.81233978271484,0,NaN
318657061,25,b_2,blue,red,Y,no_color_change,no_figure_change,not_first,no_update,correct,16,1023,3033,3100,0,3.17505086263021,3.35545349121094,1675,3.02570343017578,300,3.14908599853516,3.10970306396484,0,NaN
318657061,26,b_2,blue,red,Y,no_color_change,no_figure_change,not_first,no_update,correct,156,1163,3168,1350,0,3.4298638083718,3.64765167236328,1025,3.08566284179688,125,3.14936828613281,3.38909912109375,0,NaN
318657061,28,b_2,red,red,Y,no_color_change,no_figure_change,not_first,update,correct,14,1023,3027,2300,0,3.00532966531733,3.32083129882812,2300,2.64910125732422,1675,3.05142211914062,2.81505584716797,0,NaN
318657061,30,b_2,blue,red,Y,no_color_change,figure_change,not_first,no_update,correct,15,1023,3030,3400,0,3.18435071309408,3.33847808837891,875,2.87662506103516,3000,3.17282104492188,2.87662506103516,0,NaN
318657061,31,b_2,blue,red,X,no_color_change,figure_change,not_first,no_update,correct,2,1009,3015,2900,0,3.00748802250267,3.25325775146484,450,2.74334716796875,1000,2.98855590820312,3.04647064208984,0,NaN
318657061,34,b_2,blue,red,X,no_color_change,no_figure_change,not_first,no_update,correct,12,1018,3023,2750,0,3.16738392223011,3.55431365966797,150,2.78697967529297,1450,3.48471832275391,2.82892608642578,0,NaN
318657061,37,b_2,blue,red,X,no_color_change,no_figure_change,not_first,no_update,correct,22,1029,3034,3250,0,3.00934403737386,3.27946472167969,2775,2.80760955810547,625,2.82028961181641,3.19932556152344,0,NaN
318657061,41,b_3,blue,red,Y,no_color_change,figure_change,not_first,no_update,correct,8,1014,3020,3350,0,3.17460568745931,3.36622619628906,100,2.97561645507812,2150,3.31784057617188,3.20298004150391,0,NaN
318657061,44,b_3,blue,red,X,no_color_change,figure_change,not_first,no_update,correct,21,1032,3037,3500,0,2.94672050476074,3.07673645019531,150,2.81886291503906,1900,3.06986236572266,2.95753479003906,0,NaN
318657061,50,b_0,red,blue,Y,no_color_change,figure_change,not_first,no_update,correct,59,1068,3073,3425,0,3.27634760538737,3.50398254394531,350,3.02180480957031,950,3.24793243408203,3.23075866699219,0,NaN
318657061,54,b_0,blue,blue,Y,no_color_change,figure_change,not_first,update,correct,11,1018,3023,3375,0,3.52736021677653,3.6876220703125,2200,3.29643249511719,2850,3.58558654785156,3.39252471923828,0,NaN
318657061,57,b_1,red,blue,X,no_color_change,no_figure_change,not_first,no_update,correct,6,1013,3017,3400,0,3.2482489267985,3.48756408691406,100,3.01256561279297,1225,3.48059844970703,3.34322357177734,0,NaN
318657061,60,b_1,red,blue,X,no_color_change,no_figure_change,not_first,no_update,correct,15,1022,3027,3325,0,3.18428662618001,3.47016906738281,2975,2.98397827148438,1300,3.38371276855469,3.42572784423828,0,NaN
318657061,61,b_1,red,blue,X,no_color_change,no_figure_change,not_first,no_update,correct,22,1030,3035,3400,0,3.1743111928304,3.418701171875,1200,2.97392272949219,3000,3.16883087158203,2.97392272949219,0,NaN
318657061,62,b_1,red,blue,Y,no_color_change,figure_change,not_first,no_update,correct,14,1022,3026,3375,0,3.20699727034368,3.41905975341797,1350,3.01784515380859,2950,3.01808929443359,3.06479644775391,1,125
318657061,65,b_1,red,blue,Y,no_color_change,figure_change,not_first,no_update,correct,21,1030,3035,3425,0,3.21667575836182,3.43753814697266,2950,3.06990051269531,1050,3.28057098388672,3.39540100097656,0,NaN
318657061,73,b_2,red,blue,Y,no_color_change,figure_change,not_first,no_update,correct,10,1016,3021,3250,0,3.33655878702799,3.71412658691406,600,2.94808959960938,1450,3.38027191162109,3.14481353759766,0,NaN
318657061,74,b_2,red,blue,Y,no_color_change,no_figure_change,not_first,no_update,correct,21,1028,3033,3375,0,3.2730853398641,3.42768096923828,2925,3.05619812011719,625,3.30304718017578,3.38663482666016,0,NaN
318657061,77,b_2,red,blue,X,no_color_change,no_figure_change,not_first,no_update,correct,6,1014,3019,3275,0,2.99965686798096,3.19618225097656,1800,2.79943084716797,2400,2.99846649169922,2.91500091552734,0,NaN
318657061,78,b_2,red,blue,Y,no_color_change,figure_change,not_first,no_update,correct,17,1023,3029,2675,0,3.02200493989167,3.27915191650391,2575,2.77161407470703,1800,3.01030731201172,3.16891479492188,0,NaN
318657061,80,b_3,blue,blue,X,no_color_change,no_figure_change,not_first,update,correct,8,1015,3020,3175,0,3.32415332794189,3.58668518066406,875,3.07643890380859,25,3.07643890380859,3.34281158447266,0,NaN
318657061,83,b_3,blue,blue,X,no_color_change,no_figure_change,not_first,update,correct,19,1025,0,1000,0,3.3150203704834,3.45875549316406,800,3.16799163818359,450,3.25020599365234,3.32421112060547,0,NaN
318657061,85,b_3,red,blue,Y,no_color_change,figure_change,not_first,no_update,correct,8,1014,3018,3425,0,3.2519479115804,3.494873046875,3000,2.97764587402344,1525,3.35499572753906,3.494873046875,0,NaN
318657061,86,b_3,red,blue,Y,no_color_change,no_figure_change,not_first,no_update,correct,18,1025,3031,3425,0,3.25196431477865,3.49999237060547,850,3.0504150390625,1725,3.43928527832031,3.24275970458984,0,NaN
318657061,87,b_3,red,blue,X,no_color_change,figure_change,not_first,no_update,correct,5,1013,3017,3375,0,3.28176549275716,3.45809173583984,2425,3.12752532958984,875,3.42345428466797,3.35665130615234,0,NaN
318657061,90,b_3,red,blue,X,no_color_change,no_figure_change,not_first,no_update,correct,14,1021,3027,3350,0,3.19345712661743,3.31748199462891,2850,3.07443237304688,1775,3.21327209472656,3.23978424072266,0,NaN
318657061,92,b_3,blue,blue,X,no_color_change,no_figure_change,not_first,update,correct,13,1021,3025,3325,0,3.23965028127035,3.39674377441406,900,3.0743408203125,200,3.14105224609375,3.24845886230469,1,125
318657061,94,b_3,red,blue,Y,no_color_change,no_figure_change,not_first,no_update,correct,28,1036,3042,3275,0,3.16043472290039,3.36262512207031,350,2.94544219970703,2725,3.04634094238281,3.05567169189453,0,NaN
318657061,96,b_3,blue,blue,Y,no_color_change,no_figure_change,not_first,update,correct,9,1015,3021,3250,0,3.1056555112203,3.27689361572266,1225,2.89478302001953,25,2.89478302001953,3.12899017333984,3,133.333333333333
318657061,97,b_3,blue,blue,Y,no_color_change,no_figure_change,not_first,update,correct,20,1027,3032,3250,0,3.11987436082628,3.24842834472656,2750,2.93936920166016,2125,3.12689208984375,3.06857045491536,0,NaN
318657061,99,b_0,red,red,X,no_color_change,no_figure_change,not_first,update,correct,103,1111,3114,3375,0,3.25649741490682,3.42555999755859,325,3.11347961425781,2125,3.17937469482422,3.28985595703125,0,NaN
318657061,100,b_0,red,red,Y,no_color_change,figure_change,not_first,update,correct,2,1011,3017,3250,0,3.1586222966512,3.42240905761719,2125,2.84693908691406,2975,3.17776489257812,2.90940856933594,0,NaN
318657061,102,b_0,blue,red,X,no_color_change,figure_change,not_first,no_update,correct,26,1032,3039,3225,0,3.33681831359863,3.68685913085938,2000,3.03566741943359,2725,3.27716064453125,3.03691101074219,0,NaN
318657061,104,b_0,red,red,X,no_color_change,figure_change,not_first,update,correct,39,1046,3052,3125,0,2.98734118143717,3.26625823974609,300,2.80943298339844,2925,2.96260833740234,2.84406280517578,0,NaN
318657061,105,b_0,red,red,X,no_color_change,no_figure_change,not_first,update,correct,10,1016,3021,3300,0,3.03358020782471,3.17591094970703,2700,2.83235931396484,25,2.83235931396484,3.13068389892578,0,NaN
