participant_id,trial_id,block,border_color,dominant,figure,is_color_change,is_figure_change,is_first,is_update,is_correct,event_fixation,event_stimulus_on,event_stimulus_off,event_Trial_Offset,event_Trial_Onset,trial_mean,trial_max,trial_max_latency,trial_min,trial_min_latency,first_bin,last_bin,valid_blinks,blinks_mean
207280074,6,b_0,blue,red,X,no_color_change,figure_change,not_first,no_update,correct,15,1023,3027,1575,0,-4.20709658071007,8.89402079619016,1500,-24.3968745886829,1375,0,-15.2446364256399,0,NaN
207280074,7,b_0,red,red,X,color_change,no_figure_change,not_first,update,correct,44,1051,3057,1775,0,10.8037239063985,17.6047725577927,1525,-0.921429055657242,175,0,11.9886109416311,1,150
207280074,11,b_0,red,red,X,color_change,no_figure_change,not_first,update,correct,23,1029,3034,2150,0,2.64341560973377,8.75362781373732,1750,-5.46914737650474,2150,0.699382648328964,-5.46914737650474,0,NaN
207280074,13,b_0,red,red,X,color_change,no_figure_change,not_first,update,correct,18,1024,3028,1600,0,6.17968757809454,13.751636861624,1575,-0.759453813012925,100,0.687231979527979,4.74514939173723,0,NaN
207280074,18,b_1,red,red,Y,color_change,figure_change,not_first,update,correct,62,1069,3074,2850,0,4.2136360513543,11.9523551257538,1850,-3.82317252537138,375,0.433657523165166,2.76810008824827,0,NaN
207280074,21,b_2,red,red,X,color_change,no_figure_change,not_first,update,correct,130,1136,3141,2500,0,-3.18561807078371,4.93851149353979,1650,-12.5210404702765,1000,-1.88691171547431,-6.64890566143747,0,NaN
207280074,23,b_2,blue,red,X,no_color_change,figure_change,not_first,no_update,correct,6,1013,3018,2325,0,-2.01393167144997,5.62626156381322,2225,-11.4501159511753,1750,-0.288500548451566,-10.0549453301478,0,NaN
207280074,24,b_2,blue,red,X,no_color_change,no_figure_change,not_first,no_update,correct,38,1045,3050,1900,0,8.2293841848613,25.6614256943948,1600,-3.08631247508153,275,4.22361708870464,17.0447459082591,0,NaN
207280074,25,b_2,red,red,X,color_change,no_figure_change,not_first,update,correct,3,1010,3015,2575,0,-5.04684122832244,1.15820877174112,125,-16.6667032540047,2375,0.59556868797074,-14.3564323833065,1,150
207280074,28,b_3,red,red,X,color_change,figure_change,not_first,update,correct,68,1076,3081,2200,0,9.51356266063514,19.8882815067061,2050,-11.4129918234229,75,-0.646848446830518,14.1953634381271,1,150
207280074,35,b_0,blue,blue,X,color_change,figure_change,not_first,update,correct,6,1013,3019,2750,0,3.64456163702503,10.5459338709095,1725,-1.98392430597472,125,0.146259924780608,0.169991693880817,0,NaN
207280074,37,b_0,blue,blue,X,color_change,no_figure_change,not_first,update,correct,6,1012,3017,2775,0,6.11485586743549,19.3730098458505,1725,-8.30089132259482,2350,1.02002478116631,-6.66799898743622,0,NaN
207280074,43,b_1,red,blue,X,no_color_change,figure_change,not_first,no_update,correct,10,1017,3023,3075,0,-6.22268689925715,0.0191031200228338,100,-13.8951031568481,1825,-0.526601670026977,-0.293911858664529,0,NaN
207280074,44,b_1,red,blue,Y,no_color_change,figure_change,not_first,no_update,correct,22,1028,3034,3025,0,4.22564492127608,10.8313041722915,650,-4.97318984115769,1425,1.54805011291808,10.5544971675856,0,NaN
207280074,45,b_1,blue,blue,X,color_change,figure_change,not_first,update,correct,8,1016,3020,2450,0,9.10540511524218,20.6700194594143,1800,-1.36659345475034,2125,1.25051517886489,9.19131264966272,0,NaN
207280074,47,b_1,red,blue,X,no_color_change,no_figure_change,not_first,no_update,correct,6,1012,3017,2900,0,-3.70237615517804,4.49926699761744,1050,-12.983379680838,2300,-0.885601241905178,-11.3489403256882,0,NaN
207280074,48,b_1,blue,blue,Y,color_change,figure_change,not_first,update,correct,15,1022,3027,3125,0,0.772575377838536,9.17500292500293,2025,-5.82197457197458,1075,-1.08590733590734,0.229612729612725,0,NaN
207280074,54,b_2,blue,blue,Y,color_change,no_figure_change,not_first,update,correct,7,1013,3019,2850,0,-0.0240553840235266,8.37430767491806,1825,-4.93175652763648,300,-0.565163332203014,-3.44160920839455,0,NaN
207280074,63,b_3,red,blue,Y,no_color_change,figure_change,not_first,no_update,correct,14,1021,3026,2500,0,1.040484089369,8.496944006557,1575,-7.7892005641834,1750,-0.290388517208342,-1.50071780018756,1,125
207280074,64,b_3,blue,blue,X,color_change,figure_change,not_first,update,correct,23,1030,3035,2650,0,1.37924796446956,8.92788894389481,1500,-7.71641909725874,675,0.569439563737475,1.19787511831261,1,125
207280074,66,b_3,blue,blue,X,color_change,no_figure_change,not_first,update,correct,16,1023,3027,2650,0,2.62477313974592,12.0676656545069,2400,-9.54983153778961,150,0.0660330269123364,12.0676656545069,0,NaN
207280074,71,b_0,red,blue,Y,no_color_change,figure_change,not_first,no_update,correct,65,1072,3077,1825,0,-0.360011292789931,7.6205578308933,1075,-10.1180706707,1850,-0.570153067665913,-10.1180706707,0,NaN
207280074,72,b_0,red,blue,Y,no_color_change,no_figure_change,not_first,no_update,correct,5,1011,3016,2350,0,3.92691079965002,13.0767780680257,675,-10.4772035655616,1550,3.15676083268252,-4.48442086553739,0,NaN
207280074,75,b_1,blue,blue,X,color_change,figure_change,not_first,update,correct,30,1038,3044,2175,0,2.35206767372758,9.96050989825189,1150,-5.47999125300677,1475,4.31792747713561,3.98528447022807,0,NaN
207280074,79,b_2,red,blue,Y,no_color_change,figure_change,not_first,no_update,correct,22,1028,3034,2825,0,-1.69836677526227,6.28894194374891,525,-11.9703410392282,2350,-0.927085153050328,-7.73185620838913,0,NaN
207280074,80,b_2,red,blue,X,no_color_change,figure_change,not_first,no_update,correct,10,1018,3024,2575,0,-3.59819214198431,2.86244185818303,1250,-10.5653739720919,1800,-1.94468431691952,-1.226129962907,1,150
207280074,81,b_2,red,blue,Y,no_color_change,figure_change,not_first,no_update,correct,21,1029,3033,1750,0,2.16308806746743,14.9340804851369,350,-11.8572881569677,1700,1.80911989428752,-7.22852920937704,1,125
207280074,82,b_2,red,blue,Y,no_color_change,no_figure_change,not_first,no_update,correct,22,1029,3034,2525,0,17.5865158275656,30.6286524025343,2000,-0.245347761421257,175,2.25175373877197,20.6311702912553,0,NaN
207280074,83,b_2,red,blue,Y,no_color_change,no_figure_change,not_first,no_update,correct,21,1028,3034,2750,0,-5.55054966491455,3.2666251841504,875,-15.7364663290679,1425,1.45180608809214,-1.25505107022433,0,NaN
207280074,84,b_2,blue,blue,Y,color_change,no_figure_change,not_first,update,correct,43,1050,0,375,0,-5.2468763488058,3.88647822840045,300,-13.480039243058,175,-7.08010171956833,0.703592887439783,0,NaN
207280074,92,b_3,red,blue,Y,no_color_change,figure_change,not_first,no_update,correct,15,1021,0,2325,0,13.0424239234681,23.3232144662457,1900,1.48859373249577,50,1.48859373249577,15.874234595596,0,NaN
207280074,93,b_3,red,blue,Y,no_color_change,no_figure_change,not_first,no_update,correct,525,1533,3538,2300,0,8.47175010498117,18.7761495054391,850,-8.4105153493872,2125,14.937908707085,-3.15784705683218,0,NaN
207280074,94,b_3,blue,blue,X,color_change,figure_change,not_first,update,correct,21,1030,3033,3200,0,2.3971771153388,6.95448540609286,2050,-0.920053218074429,1000,0.86843074728219,1.51183445142911,0,NaN
207280074,97,b_3,red,blue,Y,no_color_change,no_figure_change,not_first,no_update,correct,11,1019,3024,2550,0,-3.63906148917424,4.67364604187146,2400,-10.8261638072276,1775,-0.975868774351866,4.67364604187146,0,NaN
207280074,98,b_3,blue,blue,X,color_change,figure_change,not_first,update,correct,21,1028,3034,2375,0,-3.97731722932141,2.35797851691892,1500,-10.6615775489948,1000,0.00325430789007441,-5.13343824602103,0,NaN
207280074,102,b_0,red,blue,Y,no_color_change,no_figure_change,not_first,no_update,correct,5,1012,3018,2725,0,-0.149316404793809,7.22215707437783,1450,-9.25492936511165,1950,-6.51999626662965,0.315900567903071,1,125
207280074,103,b_0,blue,blue,Y,color_change,no_figure_change,not_first,update,correct,16,1022,3027,2975,0,-0.454100922618337,2.68317513760324,1625,-5.37834133128936,650,-1.07425755377754,-0.213958059517964,2,162.5
207280074,107,b_1,blue,blue,X,color_change,figure_change,not_first,update,correct,22,1029,3034,2700,0,2.32107930669796,10.447081271242,1675,-6.15991890763819,2150,2.17041321328483,-2.77288176018126,0,NaN
207280074,109,b_1,red,blue,X,no_color_change,figure_change,not_first,no_update,correct,22,1028,3033,2675,0,5.45780278791111,16.1616343729315,900,-3.97363615524688,350,-1.39443000677383,7.99183019582289,0,NaN
207280074,110,b_1,blue,blue,Y,color_change,figure_change,not_first,update,correct,9,1015,3021,2725,0,-0.617406380479005,7.64432396873127,1725,-5.77715777367725,875,-0.569434368081815,2.05332294463587,0,NaN
207280074,112,b_1,red,blue,Y,no_color_change,figure_change,not_first,no_update,correct,22,1030,3035,2975,0,2.24317727166198,16.9775266380407,2250,-9.44308603689568,1150,-0.374721692111962,11.5234375,0,NaN
207280074,113,b_1,red,blue,X,no_color_change,figure_change,not_first,no_update,correct,15,1022,3027,2650,0,-9.27120549362683,1.10567470956211,2400,-20.7292225201072,975,-0.76697944593387,1.10567470956211,0,NaN
207280074,114,b_1,red,blue,X,no_color_change,no_figure_change,not_first,no_update,correct,22,1029,3034,2875,0,-7.04524109025938,-0.116128073961875,150,-13.6306452084792,1100,-0.156412812797498,-9.48176721722477,0,NaN
207280074,115,b_1,blue,blue,Y,color_change,figure_change,not_first,update,correct,63,1071,3076,2750,0,-8.5507400275708,5.44296853301749,1850,-22.8679047796118,900,-5.9201722432247,-4.26820730702401,0,NaN
207280074,117,b_1,red,blue,Y,no_color_change,figure_change,not_first,no_update,correct,15,1022,3028,2475,0,-5.86881016962962,5.9311641184926,425,-19.8755063679222,1200,-9.8373591467889,-15.4626921182514,0,NaN
207280074,118,b_1,red,blue,Y,no_color_change,no_figure_change,not_first,no_update,correct,30,1037,3043,2100,0,4.15794567826425,24.6338595001932,2125,-12.8792899708667,1600,-1.14277011763312,24.6338595001932,0,NaN
207280074,123,b_2,blue,blue,X,color_change,no_figure_change,not_first,update,correct,12,1018,3024,2825,0,-1.97907890329195,9.16655669810076,1925,-12.71887974176,1225,-0.634434034086865,-0.804716128835793,0,NaN
207280074,125,b_2,red,blue,X,no_color_change,figure_change,not_first,no_update,correct,10,1016,3022,2975,0,-1.26759381887232,4.76345417154943,625,-12.7537233947904,2325,2.29923917934066,-8.09220343119186,1,250
207280074,126,b_2,blue,blue,Y,color_change,figure_change,not_first,update,correct,25,1034,3038,3150,0,2.18187491161477,9.56945451443681,50,-4.53096344948182,300,9.56945451443681,-2.2732119247665,2,150
207280074,131,b_3,blue,blue,X,color_change,figure_change,not_first,update,correct,22,1030,3036,3100,0,5.96131644893566,15.0127875919108,475,-3.56118965855067,575,0.379244913322808,1.77891903598056,0,NaN
207280074,133,b_3,red,blue,X,no_color_change,figure_change,not_first,no_update,correct,19,1027,3031,3375,0,1.69052134912705,6.98932804983797,1175,-4.67812177552572,1900,1.00979029109283,-3.75504410717487,0,NaN
207280074,136,b_0,red,red,X,color_change,no_figure_change,not_first,update,correct,12,515,1518,2850,0,-1.94566649942698,1.55365614356501,800,-8.03635375762515,1925,-3.7110379186396,-5.47189097978163,1,175
207280074,139,b_0,red,red,Y,color_change,figure_change,not_first,update,correct,12,515,1518,1900,0,7.26436922651831,13.394674249829,575,1.00013567732057,1800,4.10437739338947,2.88521975572544,0,NaN
207280074,142,b_1,blue,red,X,no_color_change,figure_change,not_first,no_update,correct,12,515,1518,3125,0,0.949345346016714,5.84042120306871,1600,-8.99125636419578,2325,-0.0570668625135227,0.00940086962178555,1,225
207280074,143,b_1,blue,red,Y,no_color_change,figure_change,not_first,no_update,correct,5,508,1511,2600,0,-1.79844993120549,3.65619074978454,1050,-13.8920999712726,2300,0.755415110600396,-11.9631140476874,1,150
207280074,144,b_1,blue,red,X,no_color_change,figure_change,not_first,no_update,correct,61,564,1567,2350,0,9.71982196689261,16.5613344809213,900,-4.09606951104553,100,-1.71427790756452,11.1895296255311,1,250
207280074,145,b_1,red,red,X,color_change,no_figure_change,not_first,update,correct,6,510,1513,3225,0,-0.475128723885424,8.01151438430992,1425,-11.6991891871806,375,0.67109438673765,-4.30823273523605,1,125
207280074,148,b_1,red,red,Y,color_change,no_figure_change,not_first,update,correct,8,511,1513,2450,0,-4.1620393272284,4.61217817542648,650,-16.0423177283556,1400,0.739519336088591,-10.5467853619647,0,NaN
207280074,150,b_1,blue,red,Y,no_color_change,no_figure_change,not_first,no_update,correct,16,520,1523,1525,0,6.60449491070378,17.4522035164926,575,-7.60254706993544,150,-7.60254706993544,-6.32875262076267,1,125
207280074,154,b_2,blue,red,Y,no_color_change,no_figure_change,not_first,no_update,correct,3,506,1509,2775,0,1.49507113498297,10.1625034822175,525,-9.31446745287398,2075,-3.85435045036679,0.934162874918755,0,NaN
207280074,155,b_2,blue,red,X,no_color_change,figure_change,not_first,no_update,correct,11,515,1517,3100,0,-7.91953882035829,1.11091003687199,50,-13.9575180401294,2250,1.11091003687199,-3.30264437758726,0,NaN
207280074,156,b_2,red,red,X,color_change,no_figure_change,not_first,update,correct,4,508,1511,2325,0,-0.357521335007406,7.77011729305737,825,-7.58826193015001,1500,4.25570762916112,-2.52747306252222,0,NaN
207280074,164,b_3,red,red,X,color_change,figure_change,not_first,update,correct,344,848,82,1250,0,3.52453845431359,12.2865836410104,250,-6.45297768244777,900,11.6175244317301,3.35538113007053,0,NaN
207280074,168,b_3,red,red,X,color_change,no_figure_change,not_first,update,correct,5,508,1511,3175,0,7.51445860114249,14.4029328255832,1925,-2.49982561158663,2325,1.99345332978528,1.48501422234393,0,NaN
207280074,172,b_3,red,red,X,color_change,figure_change,not_first,update,correct,4,507,1509,3000,0,2.61730249231042,9.68262134953119,2400,-3.99775769257351,575,-2.07464631183943,9.68262134953119,1,200
207280074,174,b_3,red,red,X,color_change,figure_change,not_first,update,correct,2,506,1509,1950,0,6.36892028192826,13.0854256932811,1650,-0.835129377005856,1575,0.450351249229826,10.2806282152481,0,NaN
207280074,179,b_0,red,red,Y,color_change,no_figure_change,not_first,update,correct,12,1019,3025,1625,0,-2.96103469785353,3.43025110513604,1100,-12.5687007246047,425,-1.47062844642939,-10.3771134302511,0,NaN
207280074,184,b_1,blue,red,Y,no_color_change,no_figure_change,not_first,no_update,correct,23,1029,3036,1175,0,-3.31199834974942,3.03521115757788,150,-10.7052647476994,750,1.36162655653523,-6.69459880320603,0,NaN
207280074,185,b_1,blue,red,X,no_color_change,figure_change,not_first,no_update,correct,309,1317,3323,1500,0,-0.442850238738586,6.07166120488986,950,-11.6704453073322,1400,5.06733386183811,-10.1950081547946,1,225
207280074,186,b_1,blue,red,Y,no_color_change,figure_change,not_first,no_update,correct,22,1029,3034,1950,0,8.08209948270371,17.9005035246727,1275,-4.0351795904666,100,-2.56542463914064,7.88452500839207,0,NaN
207280074,187,b_1,blue,red,X,no_color_change,figure_change,not_first,no_update,correct,7,1014,3019,1750,0,-3.15333569958714,7.55965534917603,1700,-18.5108788694119,400,-0.989902309690294,6.84862294189352,0,NaN
207280074,188,b_1,red,red,X,color_change,no_figure_change,not_first,update,correct,18,1025,3030,2100,0,-1.78533936731417,5.01157836235643,600,-6.43710633567989,850,0.975129677658387,-4.11541311596888,0,NaN
207280074,191,b_2,blue,red,X,no_color_change,no_figure_change,not_first,no_update,correct,5,1012,3018,1050,0,-2.85789790926197,8.46645453419694,400,-13.3605767418822,350,-0.688892119332593,7.4095610365417,0,NaN
207280074,192,b_2,blue,red,X,no_color_change,no_figure_change,not_first,no_update,correct,14,1021,3027,2200,0,1.41574849295744,8.64217763722264,2200,-8.29238313509084,600,1.89237289220644,6.61203794988668,0,NaN
207280074,193,b_2,red,red,X,color_change,no_figure_change,not_first,update,correct,4,1010,3016,2225,0,-3.55369211373341,1.62521188309536,1575,-12.2440416447135,1925,0.421501336264129,-1.15674461739457,0,NaN
207280074,195,b_2,blue,red,Y,no_color_change,figure_change,not_first,no_update,correct,25,1032,3038,1725,0,0.730774481317,6.36282154065182,900,-8.77811596156529,1625,-2.16035587340102,-8.39334321870558,0,NaN
207280074,198,b_3,blue,red,X,no_color_change,figure_change,not_first,no_update,correct,15,1021,3026,2525,0,0.567810414641877,7.86004865791888,1325,-8.20080365333227,550,2.66073066645396,-0.181470107286728,0,NaN
207280074,199,b_3,red,red,Y,color_change,figure_change,not_first,update,correct,22,1030,3034,1875,0,1.7036161804222,13.6689648675249,1675,-9.22304944230822,725,-2.45686844721452,2.59570258752129,0,NaN
207280074,201,b_3,blue,red,X,no_color_change,no_figure_change,not_first,no_update,correct,22,1030,3036,2525,0,9.62468003800752,15.6589835708231,1125,-1.06675278192655,2125,1.40260229550989,13.6129388177989,0,NaN
207280074,202,b_3,blue,red,X,no_color_change,no_figure_change,not_first,no_update,correct,12,1018,3025,1875,0,-6.51799078009938,-0.579057654313601,125,-12.1297970424475,600,-3.35269113332934,-9.38490091600312,1,125
207280074,203,b_3,red,red,Y,color_change,figure_change,not_first,update,correct,39,1046,3051,2300,0,2.91448659335769,12.1795916677663,1075,-6.03520319586855,1700,-2.42562076486614,10.3159387217043,0,NaN
207280074,206,b_3,red,red,X,color_change,no_figure_change,not_first,update,correct,90,1098,3103,2150,0,2.06615553585891,8.00264919483762,2100,-3.86746920691633,1600,0.673463898376482,0.833329104095085,0,NaN
208278119,3,b_0,blue,blue,X,color_change,figure_change,not_first,update,correct,6,1014,3018,2300,0,-7.57175694489365,6.27798331032508,175,-20.4484753570109,1700,0,-12.4578648458035,1,125
208278119,7,b_0,blue,blue,X,color_change,figure_change,not_first,update,correct,2,1010,3015,3450,0,4.43528155425437,16.5067170514891,2875,-6.83149939238568,2000,2.55863894391636,16.5067170514891,0,NaN
208278119,12,b_1,blue,blue,Y,color_change,figure_change,not_first,update,correct,4,1012,3017,2350,0,-1.89461580712623,5.08601825251894,300,-8.63870125797968,175,-0.604589848278422,-3.25833739999868,0,NaN
208278119,15,b_1,blue,blue,X,color_change,no_figure_change,not_first,update,correct,14,1021,3026,3075,0,-3.61982010527623,4.3233230310779,2100,-9.66747541049622,700,-2.02534958874872,-7.85978194118654,0,NaN
208278119,17,b_1,blue,blue,X,color_change,figure_change,not_first,update,correct,12,1019,3024,2875,0,0.0942598358329121,7.87165907402877,575,-8.51543542511058,2325,0.640911204705887,4.04404391167415,0,NaN
208278119,20,b_2,blue,blue,Y,color_change,no_figure_change,not_first,update,correct,17,1023,3029,2875,0,0.718299219915201,12.2101448515518,500,-8.90835994991957,2650,0.370150555854991,-3.31185131901525,0,NaN
208278119,25,b_3,blue,blue,X,color_change,figure_change,not_first,update,correct,8,1016,3022,2475,0,-4.88747094472053,5.83166420196801,850,-15.4105023201446,1550,0.364193024382843,-2.26232297327934,1,125
208278119,27,b_3,red,blue,X,no_color_change,no_figure_change,not_first,no_update,correct,9,1016,3020,3250,0,-4.02634334355316,7.65967798923799,2425,-15.4745884120147,1775,0,-3.74932665035826,0,NaN
208278119,28,b_3,blue,blue,Y,color_change,figure_change,not_first,update,correct,16,1024,3028,2175,0,1.99041323326747,8.21473384798124,700,-3.4219685971544,200,-2.05865725356094,1.11097760119449,0,NaN
208278119,31,b_3,red,blue,Y,no_color_change,no_figure_change,not_first,no_update,correct,8,1015,3020,3200,0,-5.39471450651752,6.41041003058837,1425,-14.0902872777018,2725,-1.59049530523464,-7.25084126334289,0,NaN
208278119,36,b_0,red,blue,Y,no_color_change,figure_change,not_first,no_update,correct,10,1018,3023,2950,0,7.20819435666254,14.3833845326383,2125,0.0961926335060639,50,0.0961926335060639,7.35325451743364,0,NaN
208278119,40,b_1,red,blue,Y,no_color_change,figure_change,not_first,no_update,correct,9,1015,3020,3050,0,5.06134344998742,14.9932234761594,2075,-5.25191562898861,1800,1.00595193712088,3.6906834858965,0,NaN
208278119,41,b_1,blue,blue,X,color_change,figure_change,not_first,update,correct,20,1028,3033,2600,0,6.64758897854959,14.2150166685317,1925,-3.74498307811514,50,-3.74498307811514,10.2426490614318,0,NaN
208278119,43,b_1,red,blue,Y,no_color_change,no_figure_change,not_first,no_update,correct,1591,2598,4603,1250,0,-3.74157318797797,0.67336038805017,250,-7.59251595136428,1100,-1.27159784320686,-1.18823688634077,0,NaN
208278119,44,b_1,red,blue,Y,no_color_change,no_figure_change,not_first,no_update,correct,6,1012,3018,3075,0,-5.27834204418511,4.06255089111588,300,-11.8673117177663,900,1.41462407105095,-6.41516028963747,1,125
208278119,45,b_1,red,blue,Y,no_color_change,no_figure_change,not_first,no_update,correct,208,1214,3219,2650,0,8.69354674393199,20.5087808520077,1975,-1.65077853641645,50,-1.65077853641645,9.54932534057586,0,NaN
208278119,46,b_1,blue,blue,Y,color_change,no_figure_change,not_first,update,correct,3,1011,3016,2725,0,2.12657463630901,11.2785155396739,1775,-4.34293139467803,50,-4.34293139467803,-3.14228691874413,0,NaN
208278119,50,b_2,red,blue,Y,no_color_change,figure_change,not_first,no_update,correct,15,1022,3028,2975,0,-1.17906687313654,4.86625633240375,275,-6.50092407716045,1550,2.28337816207653,-5.06447913400768,0,NaN
208278119,51,b_2,blue,blue,X,color_change,figure_change,not_first,update,correct,5,1012,3017,2425,0,12.2354045094059,23.8061763136293,1675,0.259971838170216,50,0.259971838170216,11.8922649269486,0,NaN
208278119,57,b_3,red,blue,X,no_color_change,figure_change,not_first,no_update,correct,9,1016,3022,2375,0,1.70166315395955,7.62775527381767,1425,-3.75758851070546,1350,-2.1650796990899,4.63464674627808,1,150
208278119,58,b_3,blue,blue,X,color_change,no_figure_change,not_first,update,correct,168,1176,3181,2825,0,5.30441939686063,16.9520620309793,500,-4.56699663723832,2650,2.1023800947047,1.353959344996,0,NaN
208278119,60,b_3,blue,blue,Y,color_change,figure_change,not_first,update,correct,16,1023,3028,2925,0,7.0024487380635,22.1156335651599,1650,-1.94582578185681,550,-0.42295708380577,6.31087680454249,0,NaN
208278119,65,b_3,blue,blue,X,color_change,figure_change,not_first,update,correct,22,1030,3034,3025,0,-4.03335326147211,7.99631711842417,1750,-12.0223762956349,2850,0.3147538467977,-11.6640277332143,0,NaN
208278119,69,b_0,blue,blue,Y,color_change,no_figure_change,not_first,update,correct,16,1022,3029,2025,0,-0.609272955733996,12.3175172150519,425,-12.1661121077176,1700,0.651883101022463,-3.21250580305366,0,NaN
208278119,71,b_0,red,blue,Y,no_color_change,figure_change,not_first,no_update,correct,14,1021,3026,2800,0,-5.00979886503793,3.62669941569841,2075,-10.7865524288332,1700,-6.449864238633,-8.67225702872898,1,250
208278119,72,b_0,blue,blue,Y,color_change,no_figure_change,not_first,update,correct,22,1030,3036,3100,0,2.59090841150317,11.8623964115582,1275,-3.85960431270807,2875,0.602680484873503,-3.85960431270807,0,NaN
208278119,77,b_1,blue,blue,X,color_change,figure_change,not_first,update,correct,6,1016,3022,2875,0,7.25373692702941,20.8006228900004,2200,-0.745013459735461,475,-0.482458081675844,2.63541218176478,0,NaN
208278119,82,b_2,red,blue,X,no_color_change,no_figure_change,not_first,no_update,correct,21,1028,3033,2925,0,6.08361953407384,14.9237960222764,350,-2.3838890539275,50,-2.3838890539275,0.332041018158876,2,162.5
208278119,83,b_2,red,blue,X,no_color_change,no_figure_change,not_first,no_update,correct,7,1014,3019,2625,0,-2.05463611844905,13.0349831667864,250,-12.1875051940113,2600,-1.74703456579913,-11.9343144551413,1,125
208278119,84,b_2,blue,blue,Y,color_change,figure_change,not_first,update,correct,16,1022,3027,3100,0,2.81770118597621,7.79617988646969,1050,-1.12653473656081,525,0.0463474261520531,-0.902730949015748,1,125
208278119,86,b_2,red,blue,Y,no_color_change,no_figure_change,not_first,no_update,correct,16,1023,3029,3150,0,7.48769940808351,18.6487507873189,850,-1.97522569808945,75,0.755826159983201,10.9932815452446,0,NaN
208278119,87,b_2,blue,blue,X,color_change,figure_change,not_first,update,correct,2,1009,3015,2975,0,2.85639654792481,10.654854455371,1375,-2.76219970004423,1675,-0.12886716218722,2.75314350820963,1,225
208278119,90,b_2,blue,blue,Y,color_change,no_figure_change,not_first,update,correct,18,1028,3033,3025,0,11.6551148697389,24.9177744756814,2525,0.549699320854074,100,0.86982537672155,23.3113599872349,1,125
208278119,93,b_2,red,blue,Y,no_color_change,figure_change,not_first,no_update,correct,22,1030,3036,3125,0,5.40566000337712,13.0380221893838,1825,-0.279517431723463,75,0.327015848442912,1.44606290901415,0,NaN
208278119,94,b_2,blue,blue,X,color_change,figure_change,not_first,update,correct,9,1017,3022,2700,0,5.03900799372388,13.7433495755781,2000,0.242964085316729,75,0.292896074503872,0.518833542818101,1,250
208278119,98,b_3,blue,blue,X,color_change,no_figure_change,not_first,update,correct,13,1020,3026,2550,0,7.93580206082357,19.2741455507857,2475,-0.928465600425483,75,0.919601362559987,19.2741455507857,0,NaN
208278119,101,b_0,blue,red,X,no_color_change,no_figure_change,not_first,no_update,correct,8,1016,3021,3325,0,3.54188236759449,9.90951433430786,2125,-3.73021783997895,75,-0.791656940013411,4.58190212578323,0,NaN
208278119,102,b_0,red,red,Y,color_change,figure_change,not_first,update,correct,16,1024,3029,3000,0,2.28112576906761,6.73073356036831,2350,-2.21692968593496,2050,1.63969698993182,0.375052863534179,1,200
208278119,104,b_0,blue,red,X,no_color_change,figure_change,not_first,no_update,correct,93,1100,3105,3000,0,1.02497575813567,7.57987751887458,2275,-4.04920971158546,125,-2.93319890282983,3.54119140731085,2,137.5
208278119,105,b_0,red,red,X,color_change,no_figure_change,not_first,update,correct,7,1016,3021,2875,0,-3.34232786928757,9.10943550030568,175,-12.7678204432962,2450,3.30624186133265,-6.9912231920501,0,NaN
208278119,108,b_0,blue,red,Y,no_color_change,no_figure_change,not_first,no_update,correct,17,1025,3030,3075,0,-1.83212834231825,3.48876590901668,200,-7.19535404277705,2600,2.24974083109407,-3.94968255032519,0,NaN
208278119,109,b_0,red,red,X,color_change,figure_change,not_first,update,correct,30,1037,3043,3525,0,-0.0177481235830729,6.45865682384166,2800,-3.38381963650559,1775,0.139591055716181,3.34251741402777,1,275
208278119,111,b_0,red,red,Y,color_change,no_figure_change,not_first,update,correct,23,1030,3035,3100,0,3.0616027384596,12.6416810162998,800,-4.88544497693685,175,0.107017143489415,-1.52534006901655,0,NaN
208278119,118,b_1,blue,red,X,no_color_change,figure_change,not_first,no_update,correct,22,1030,3035,3275,0,0.220973606671953,7.83825139032706,1800,-5.96460918566426,2150,-0.272251231590744,-0.0310089538354248,1,250
208278119,119,b_1,red,red,Y,color_change,figure_change,not_first,update,correct,14,1021,3026,3075,0,-2.85130991878654,3.22312603060256,75,-7.53493685112342,2100,-0.714121212679515,-4.88480281521468,0,NaN
208278119,123,b_1,red,red,Y,color_change,no_figure_change,not_first,update,correct,25,1035,3039,3100,0,2.26405656993869,8.27939090059006,2725,-3.61743462418987,2325,-0.64247251152743,2.41350401444554,0,NaN
208278119,129,b_2,blue,red,Y,no_color_change,no_figure_change,not_first,no_update,correct,13,1020,3024,2900,0,0.919783077792765,6.34216194702832,2275,-4.01117593294438,2775,-0.866194802831188,-1.65679005925965,1,200
208278119,130,b_2,red,red,X,color_change,figure_change,not_first,update,correct,29,1039,3044,3100,0,1.23777037116432,8.53759272435819,1150,-9.46381398696339,2475,0.124518487621756,-5.0981017575713,0,NaN
208278119,135,b_3,red,red,X,color_change,figure_change,not_first,update,correct,8,1015,3021,3050,0,-2.70254253581259,5.47897716955281,2100,-8.15362633049213,925,-2.20270619762177,-2.24956014557129,2,175
208278119,137,b_3,red,red,Y,color_change,figure_change,not_first,update,correct,7,1013,3018,3300,0,3.0287503708908,8.64536868445308,2125,-2.99907010352027,325,-1.1819743775544,1.77255101600942,0,NaN
208278119,140,b_0,blue,red,X,no_color_change,no_figure_change,not_first,no_update,correct,13,1021,3025,3000,0,5.68161668428225,13.298965032773,2000,-0.242182704274015,100,-0.08023001759463,3.50679809463037,0,NaN
208278119,141,b_0,red,red,X,color_change,no_figure_change,not_first,update,correct,22,1029,3034,3300,0,-3.47273738703964,1.17635893011217,2775,-8.02881794650561,1875,-0.286453839516824,-1.9144089732528,0,NaN
208278119,144,b_0,blue,red,Y,no_color_change,figure_change,not_first,no_update,correct,10,1017,3023,3125,0,1.91692122462422,7.44355922391868,2100,-2.32438474469315,1300,-1.48787742351573,-0.236419359268766,1,150
208278119,145,b_0,red,red,X,color_change,figure_change,not_first,update,correct,21,1028,3033,3300,0,-1.29453625973729,5.70964278262817,150,-5.45622013505697,1825,3.2512395488602,-3.23275021245774,1,150
208278119,147,b_0,blue,red,Y,no_color_change,figure_change,not_first,no_update,correct,21,1027,3034,3200,0,1.1601118432942,10.3319400479197,2450,-6.8848703195229,1875,-3.28424771332132,7.11554941499502,1,275
208278119,150,b_1,blue,red,X,no_color_change,no_figure_change,not_first,no_update,correct,108,1116,3120,3100,0,7.87301805506199,18.6451415710356,2750,-0.538127390776808,200,-0.425870867950394,11.7259903489029,0,NaN
208278119,151,b_1,red,red,Y,color_change,figure_change,not_first,update,correct,21,1028,3033,3025,0,7.34272915979639,18.312125707579,2225,-1.04337144752525,200,0.850006014193497,4.46836351972473,0,NaN
208278119,154,b_1,blue,red,Y,no_color_change,figure_change,not_first,no_update,correct,11,1018,3022,3000,0,5.09847260593439,13.6193336291327,1850,-2.33413107794884,2475,-0.615354042715026,-0.208315845195287,1,125
208278119,155,b_1,blue,red,X,no_color_change,figure_change,not_first,no_update,correct,23,1029,3036,3100,0,6.15232596827056,15.7994422374564,2050,-1.12370699709977,50,-1.12370699709977,-1.10577642843963,0,NaN
208278119,156,b_1,blue,red,Y,no_color_change,figure_change,not_first,no_update,correct,7,1013,3018,3325,0,6.7873237646792,16.6492809639366,2100,-0.699820286735985,125,0.898932334844972,13.6036718604166,0,NaN
208278119,157,b_1,blue,red,X,no_color_change,figure_change,not_first,no_update,correct,20,1027,3032,3125,0,1.14187368963021,10.7754944427655,875,-6.37822772908902,2800,-0.581914643564687,-1.79879789127295,1,125
208278119,158,b_1,red,red,X,color_change,no_figure_change,not_first,update,correct,7,1013,3020,3075,0,-2.79072270234473,10.7049829884355,75,-13.6099303416737,2700,3.83655322795497,-10.1687581133708,0,NaN
208278119,160,b_1,red,red,X,color_change,no_figure_change,not_first,update,correct,5,1012,3018,3025,0,1.96642705741856,11.4807227016955,900,-7.12949486896629,2300,0.251592150028273,-6.28201681607075,0,NaN
208278119,171,b_3,blue,red,Y,no_color_change,figure_change,not_first,no_update,correct,2,1010,3016,3250,0,0.88962051562334,7.30193266576011,725,-3.05732064119998,275,-1.73519594511065,2.90831169901513,1,125
208278119,172,b_3,blue,red,X,no_color_change,figure_change,not_first,no_update,correct,14,1021,3026,3475,0,7.29536724702631,18.6336599195975,375,-0.66795649830793,100,1.40118561860035,1.99600330714618,0,NaN
208278119,173,b_3,red,red,Y,color_change,figure_change,not_first,update,correct,22,1028,3034,2600,0,2.3495312834608,19.2299794661191,975,-14.0640524607538,2600,0.0539842352785342,-14.0640524607538,0,NaN
208278119,180,b_3,blue,red,Y,no_color_change,no_figure_change,not_first,no_update,correct,113,1119,3124,3250,0,6.55592317370056,20.4818361578654,1800,-2.39299183448941,900,3.41983411277094,1.51597998516563,0,NaN
208278119,181,b_3,red,red,X,color_change,figure_change,not_first,update,correct,166,1172,3178,3425,0,1.15206779148818,7.7571485082283,1425,-5.53372204837605,50,-5.53372204837605,4.56230964915949,0,NaN
208278119,184,b_0,red,red,Y,color_change,no_figure_change,not_first,update,correct,6,1015,3020,2925,0,-2.09943600015397,9.2195582931667,2750,-14.2386439330215,2200,0.648155153716175,-2.83310116056713,0,NaN
208278119,187,b_0,red,red,X,color_change,figure_change,not_first,update,correct,15,1022,3028,2675,0,-2.94486946857132,7.67518805702164,1100,-10.6331313394583,725,3.02208900762363,0.886601072956708,1,275
208278119,189,b_0,blue,red,X,no_color_change,no_figure_change,not_first,no_update,correct,17,1026,3030,3025,0,6.23304874301583,14.2899746830519,2800,0.440696426776967,225,8.96320452268962,4.75705778812211,0,NaN
208278119,190,b_0,red,red,Y,color_change,figure_change,not_first,update,correct,24,1030,3035,2250,0,-2.36277987101343,5.93622372178314,2175,-11.7377302432512,2000,3.61151573575967,5.16745378409364,0,NaN
208278119,195,b_1,blue,red,Y,no_color_change,no_figure_change,not_first,no_update,correct,9,0,0,75,0,-2.68909940180907,0.834293520633096,75,-6.21249232425123,50,-6.21249232425123,0.834293520633096,0,NaN
208278119,196,b_1,red,red,Y,color_change,no_figure_change,not_first,update,correct,3470,4477,6482,700,0,-0.257484073644874,9.75947970706943,125,-8.49374664959529,700,8.469970774872,-8.29718957346671,0,NaN
208278119,200,b_2,red,red,Y,color_change,figure_change,not_first,update,correct,16,1025,3030,2950,0,0.716155452464378,7.75931678806188,1825,-5.74276932387608,2600,-3.61044552509667,3.31491985284565,0,NaN
208278119,206,b_3,red,red,X,color_change,figure_change,not_first,update,correct,12,1020,3025,3150,0,1.80440796821902,15.364773029163,2650,-4.18428472263881,1025,-0.078156467190567,12.0282117423236,1,175
209049931,3,b_0,blue,red,X,no_color_change,no_figure_change,not_first,no_update,correct,9,1015,3021,2425,0,0.700887543099552,5.61695579182988,875,-6.2465025181869,1400,0,1.48934433874277,1,200
209049931,4,b_0,red,red,Y,color_change,figure_change,not_first,update,correct,20,1028,3032,3050,0,-0.464838346571393,5.22363562948266,675,-14.4830831708996,2300,0,-12.6271267680098,0,NaN
209049931,6,b_0,blue,red,X,no_color_change,no_figure_change,not_first,no_update,correct,17,1022,3028,3050,0,0.402081716935957,3.51718351873718,575,-3.07780747001429,325,1.42874899011871,2.66732956310982,1,175
209049931,7,b_0,red,red,Y,color_change,figure_change,not_first,update,correct,5,1013,3018,2475,0,-3.96360276103784,0.95684465874038,2025,-12.5965080410889,550,-1.18265400856518,-3.71477344194544,1,175
209049931,9,b_0,blue,red,Y,no_color_change,figure_change,not_first,no_update,correct,3,1011,3016,2125,0,1.92312227331682,7.25708860052501,600,-6.07239712298077,1450,-3.06319388850619,4.18365510521971,1,125
209049931,14,b_1,blue,red,Y,no_color_change,figure_change,not_first,no_update,correct,21,1029,3034,2500,0,-4.38026455365376,1.94390286863091,1775,-12.3743493498053,400,-3.51396658224158,-2.56676566874997,1,225
209049931,15,b_1,blue,red,X,no_color_change,figure_change,not_first,no_update,correct,10,1016,3021,2225,0,-4.24409570467724,5.9377894509789,1350,-14.5692969433977,275,1.97968609239592,-6.2851306256582,0,NaN
209049931,16,b_1,red,red,Y,color_change,figure_change,not_first,update,correct,22,1028,3034,2975,0,4.13790560377234,10.135697229136,1600,-4.00591423019019,2375,2.44551397556843,-2.09860867397974,0,NaN
209049931,18,b_1,red,red,X,color_change,figure_change,not_first,update,correct,20,1027,3032,2600,0,9.89454173870542,19.0500426469917,850,-0.063180728473796,250,4.23661884821531,7.99376616812391,0,NaN
209049931,23,b_2,red,red,Y,color_change,no_figure_change,not_first,update,correct,10,1018,3023,1925,0,6.82331487756732,17.1218762491557,1750,-7.70582640698011,50,-7.70582640698011,16.0109029759197,0,NaN
209049931,26,b_2,blue,red,Y,no_color_change,figure_change,not_first,no_update,correct,19,1026,3031,1975,0,1.89449472591303,5.65251442179122,1250,-5.44908120773746,1975,-1.12127039107568,-3.71209902326588,1,225
209049931,27,b_2,blue,red,X,no_color_change,figure_change,not_first,no_update,correct,6,1013,3018,1725,0,4.87351728055445,11.198678560491,575,-4.72929386390737,75,-1.25139278942328,3.8656015221315,0,NaN
209049931,28,b_2,blue,red,Y,no_color_change,figure_change,not_first,no_update,correct,22,1029,3036,1100,0,-1.26926640264133,7.28962136278993,675,-17.6853599523695,1000,1.37032720639465,-15.9894731508342,0,NaN
209049931,29,b_2,blue,red,Y,no_color_change,no_figure_change,not_first,no_update,correct,3,1010,3016,1925,0,NaN,NaN,25,NaN,25,NaN,NaN,0,NaN
209049931,30,b_2,blue,red,X,no_color_change,figure_change,not_first,no_update,correct,16,1022,3027,1200,0,2.3062197106015,13.3609159686571,950,-7.05620102674953,1100,2.3773980005404,0.256349635233718,0,NaN
209049931,31,b_2,blue,red,Y,no_color_change,figure_change,not_first,no_update,correct,22,1030,3036,925,0,4.94835733247775,15.1941981378878,450,-2.77930817021659,525,1.50452014400705,1.87701188855047,0,NaN
209049931,32,b_2,red,red,Y,color_change,no_figure_change,not_first,update,correct,13,1021,3025,1100,0,-0.494390742688175,5.73602536292341,325,-7.41531787084932,875,-3.24044718838645,0.363757717336895,1,150
209049931,34,b_2,blue,red,X,no_color_change,no_figure_change,not_first,no_update,correct,411,1419,3425,900,0,5.60909864772488,11.955723516768,375,-2.69669401811433,50,-2.69669401811433,7.45195612590831,0,NaN
209049931,35,b_2,red,red,Y,color_change,figure_change,not_first,update,correct,21,1028,3033,825,0,0.468364644151399,4.47390275820415,150,-6.29120948258506,675,-1.07899637608215,-3.57075447956512,0,NaN
209049931,38,b_2,blue,red,Y,no_color_change,no_figure_change,not_first,no_update,correct,99,1105,3111,1000,0,-4.44119607150527,4.06734504845662,75,-20.6250756879007,675,2.86124812212181,-3.64643849560274,0,NaN
209049931,39,b_2,blue,red,Y,no_color_change,no_figure_change,not_first,no_update,correct,21,1029,3033,1300,0,8.36229903356876,15.8867168091559,650,2.02134767933936,1125,4.0317302585365,8.91633971250879,0,NaN
209049931,42,b_3,blue,red,Y,no_color_change,figure_change,not_first,no_update,correct,675,1683,3687,775,0,-6.17190370633187,3.9268048119727,75,-11.0710428432603,675,3.21124683914638,-10.6619684546165,0,NaN
209049931,43,b_3,blue,red,Y,no_color_change,no_figure_change,not_first,no_update,correct,9,1016,3021,3025,0,-2.1048592938684,2.10436718015373,150,-5.89527624492096,2075,-1.19538868104661,0.720338861203217,0,NaN
209049931,44,b_3,red,red,X,color_change,figure_change,not_first,update,correct,21,1029,3034,2200,0,0.285726585019341,5.69009858551222,675,-5.5774377034557,1575,3.14176156439336,-4.36973621714299,0,NaN
209049931,47,b_0,blue,blue,X,color_change,no_figure_change,not_first,update,correct,31,1039,3044,3425,0,-1.28468758358802,3.08691368345625,200,-7.09342250619532,2325,2.14462723554176,-2.90299465559968,0,NaN
209049931,49,b_0,blue,blue,X,color_change,no_figure_change,not_first,update,correct,129,1136,3140,2400,0,1.49407827081287,7.65901277013752,1975,-7.97274066797642,500,-3.75030697445972,2.18842092337917,0,NaN
209049931,57,b_1,red,blue,Y,no_color_change,no_figure_change,not_first,no_update,correct,2,1009,3014,2650,0,-2.39290859980006,3.31591850850056,1825,-9.89063242986208,2375,-1.599446677906,-8.86488689627062,0,NaN
209049931,58,b_1,blue,blue,Y,color_change,no_figure_change,not_first,update,correct,22,1029,3035,2650,0,-1.10615376923354,9.6605122484989,2100,-8.46256959189066,375,-7.28158664618455,-1.31144226033808,1,275
209049931,63,b_2,red,blue,Y,no_color_change,figure_change,not_first,no_update,correct,16,1023,3030,2950,0,7.31405920280675,14.9690653298289,1775,-1.09429915804927,150,1.53844592606123,6.56241226156287,0,NaN
209049931,64,b_2,red,blue,Y,no_color_change,no_figure_change,not_first,no_update,correct,3,1011,3016,2650,0,1.78050972771246,11.6310370353754,925,-4.94146827622231,1325,-1.00944390856681,2.05798373994162,0,NaN
209049931,67,b_3,red,blue,Y,no_color_change,no_figure_change,not_first,no_update,correct,31,1043,3048,3550,0,5.29178289814823,10.1061082607338,1550,0.515232767072106,100,1.90258822510661,2.64358324905906,0,NaN
209049931,68,b_3,blue,blue,X,color_change,figure_change,not_first,update,correct,2,1010,3016,3500,0,1.71806534000061,6.36164835672082,2300,-4.60412435376662,400,1.5948116691285,5.63694377769572,1,150
209049931,74,b_0,blue,red,X,no_color_change,no_figure_change,not_first,no_update,correct,23,1030,3035,3000,0,4.7091750642734,11.8583282049105,1600,-3.653660178075,2425,-0.162189528316489,-2.29126814021663,0,NaN
209049931,77,b_1,blue,red,Y,no_color_change,figure_change,not_first,no_update,correct,11,1019,3024,3125,0,-3.56809684559652,1.31222145234001,150,-10.9006766409184,2150,0.0265181649429849,-6.54998674091753,0,NaN
209049931,78,b_1,blue,red,X,no_color_change,figure_change,not_first,no_update,correct,19,1027,3033,2525,0,1.31747605359306,6.74104786554152,1325,-9.78995631243919,2400,0.230838203404701,-5.44393429696095,0,NaN
209049931,79,b_1,blue,red,X,no_color_change,no_figure_change,not_first,no_update,correct,8,1015,3020,2200,0,6.95286492700362,13.642013010994,875,-2.52052498508566,1550,6.77324507826482,7.76469418482429,0,NaN
209049931,80,b_1,red,red,X,color_change,no_figure_change,not_first,update,correct,17,1023,3029,1700,0,-6.81418155598667,3.79779998100609,1425,-18.3697328735497,1200,0.0108068810358901,-12.1217182285885,0,NaN
209049931,85,b_2,red,red,Y,color_change,no_figure_change,not_first,update,correct,14,1021,3027,3075,0,-3.40999656829875,1.21556244074134,1175,-11.3058111988417,2200,-0.287142861001783,-4.68666852152491,0,NaN
209049931,89,b_3,red,red,Y,color_change,figure_change,not_first,update,correct,14,1021,3027,3075,0,3.69602937691477,9.54336952859771,750,-0.66602741856066,2325,3.96247440847954,4.8095861300438,1,175
209049931,92,b_3,blue,red,Y,no_color_change,figure_change,not_first,no_update,correct,22,1029,3034,2850,0,-1.02130931753226,4.87752653670425,300,-9.29406541364511,2100,0.191448427005568,-3.70962815551407,1,275
209049931,93,b_3,red,red,Y,color_change,no_figure_change,not_first,update,correct,9,1018,3023,2925,0,-2.06102843889078,5.55104441730657,2200,-9.26740535667474,1525,-0.202042160316637,4.4267053701016,0,NaN
209049931,102,b_1,blue,blue,Y,color_change,no_figure_change,not_first,update,correct,22,1030,3035,2875,0,1.46462363568079,7.17876396060323,1925,-6.92497912205394,2325,1.66763609658771,0.0961847787587544,1,350
209049931,104,b_1,red,blue,X,no_color_change,figure_change,not_first,no_update,correct,6,1014,3019,2225,0,3.27576903295254,10.2380086376321,1075,-8.9934071576811,1750,1.00925198595239,2.64630638836334,1,250
209049931,105,b_1,red,blue,Y,no_color_change,figure_change,not_first,no_update,correct,21,1029,3035,1975,0,0.156880277461032,7.21973188669759,550,-5.850866867566,1025,3.27871320065147,2.74826671643993,0,NaN
209049931,109,b_2,red,blue,X,no_color_change,no_figure_change,not_first,no_update,correct,16,1024,3030,1775,0,1.68736323083829,6.08736743912019,1675,-1.5140170856245,50,-1.5140170856245,5.05664522780833,0,NaN
209049931,110,b_2,blue,blue,Y,color_change,figure_change,not_first,update,correct,20,1026,3031,1075,0,3.48924732394829,7.65842309644236,650,-4.44348773158312,50,-4.44348773158312,6.92254617406725,0,NaN
209049931,114,b_3,red,blue,Y,no_color_change,figure_change,not_first,no_update,correct,21,1029,3035,2075,0,4.82817977850442,12.0795187839035,725,-5.54921740211698,1500,3.48446461600633,1.44427001569859,0,NaN
209049931,117,b_0,red,blue,X,no_color_change,no_figure_change,not_first,no_update,correct,6,1013,3019,2500,0,-0.314526961008795,7.56831727705514,1075,-10.9919906036411,2125,1.48005148005149,-3.313403556122,0,NaN
209049931,118,b_0,red,blue,X,no_color_change,no_figure_change,not_first,no_update,correct,10,1017,3021,2675,0,0.130846703586782,7.82574120389481,1450,-7.98630502877401,2200,-2.27460359857223,-1.99687978049195,0,NaN
209049931,119,b_0,red,blue,X,no_color_change,no_figure_change,not_first,no_update,correct,6,1012,3018,2775,0,-1.60489863117609,4.0003514129223,250,-9.89318258930736,1900,-3.04729533226698,0.608913770539473,0,NaN
209049931,120,b_0,blue,blue,Y,color_change,figure_change,not_first,update,correct,15,1022,3028,2650,0,0.507186105938577,7.62262992246872,2100,-5.25493206417441,1300,-2.49973132724342,3.0072925462501,0,NaN
209049931,123,b_0,red,blue,Y,no_color_change,no_figure_change,not_first,no_update,correct,21,1028,3032,1775,0,-1.81606162937452,4.85413557930157,1800,-10.3769207401547,1475,-0.903995540110628,4.85413557930157,1,150
209049931,124,b_0,blue,blue,Y,color_change,no_figure_change,not_first,update,correct,13,1021,3027,2275,0,1.245655356847,7.60786617665372,1175,-5.20580224720536,300,0.807818920843332,1.72004763896561,0,NaN
209049931,128,b_1,red,blue,X,no_color_change,figure_change,not_first,no_update,correct,4,1010,3016,2550,0,-1.47779847696729,8.03103564601372,625,-13.1281425197989,2075,0.970586817882449,-5.02385503847327,0,NaN
209049931,129,b_1,blue,blue,X,color_change,no_figure_change,not_first,update,correct,22,1030,3035,1200,0,0.58927132753003,5.63673473532428,600,-4.79222304586088,925,-2.33823116265059,-3.87121450596912,0,NaN
209049931,134,b_2,blue,blue,X,color_change,figure_change,not_first,update,correct,3,1011,0,1900,0,1.96407360292986,9.2027969761544,1700,-4.08175942656047,225,-0.599853615191606,5.83378572180945,0,NaN
209049931,136,b_2,blue,blue,X,color_change,figure_change,not_first,update,correct,23,1029,3035,3350,0,0.521390630449326,7.98394481901774,2075,-12.4703450417981,2450,-1.13318088587326,-12.4703450417981,0,NaN
209049931,140,b_3,blue,blue,Y,color_change,no_figure_change,not_first,update,correct,162,1170,3176,2325,0,-6.24575469834127,0.785268661928626,975,-15.7170138397309,1675,-12.8339200825539,-6.01787618804919,0,NaN
209049931,143,b_3,red,blue,X,no_color_change,figure_change,not_first,no_update,correct,22,1031,3035,2350,0,-4.37903654298546,2.91500222642411,1950,-14.1668333795827,1400,0.194247436385581,-3.15732751666592,1,125
209049931,144,b_3,red,blue,X,no_color_change,no_figure_change,not_first,no_update,correct,21,1029,3034,2050,0,3.58779333855713,13.507683826063,1900,-5.88450141272138,1525,4.24953483564192,6.37171800702914,0,NaN
209049931,145,b_3,red,blue,X,no_color_change,no_figure_change,not_first,no_update,correct,194,1201,3206,1750,0,-1.98302610620677,6.01660237741756,300,-10.00398805594,1625,-5.93650612786578,-7.90439389927981,1,125
209049931,149,b_0,blue,blue,X,color_change,no_figure_change,not_first,update,correct,12,1020,3025,1825,0,5.395998341306,12.6790284520678,1475,-2.55541059805662,950,2.94251841079054,8.41086183173999,0,NaN
209049931,152,b_0,red,blue,Y,no_color_change,figure_change,not_first,no_update,correct,21,1029,3034,1250,0,13.7413222959508,27.5058581345947,1275,-1.37018300739476,175,15.4530655746082,27.5058581345947,0,NaN
209049931,157,b_1,blue,blue,X,color_change,figure_change,not_first,update,correct,16,1024,3029,2100,0,1.23287891744267,9.0351730620187,1050,-7.00427089688834,1450,-0.939597315436245,3.74189931236911,1,125
209049931,161,b_2,red,blue,X,no_color_change,no_figure_change,not_first,no_update,correct,8,1015,3021,2875,0,-3.16515873755701,0.714711137581901,1950,-10.3491736904483,2325,-2.54570722110924,-5.92216085813465,1,200
209049931,162,b_2,blue,blue,Y,color_change,figure_change,not_first,update,correct,14,1021,3027,2975,0,8.93687610261616,18.2964461744808,1625,-5.66014842312725,2325,0.179380138322742,-2.29455727211015,0,NaN
209049931,166,b_3,red,blue,Y,no_color_change,figure_change,not_first,no_update,correct,268,1274,3279,775,0,13.7644048528814,22.0527794569974,750,-4.80763747105722,50,-4.80763747105722,21.2957999231995,0,NaN
209049931,167,b_3,red,blue,X,no_color_change,figure_change,not_first,no_update,correct,23,1030,0,1625,0,-2.36359154951636,2.76430862526938,1300,-9.42308174209393,1200,-4.68319300355836,-2.18356888688417,1,200
209049931,168,b_3,blue,blue,Y,color_change,figure_change,not_first,update,correct,82,1089,3096,975,0,5.74968145785113,10.9711318904762,575,-0.427395421374371,100,-0.198069317680819,6.72020899274185,1,150
209049931,190,b_1,red,red,Y,color_change,figure_change,not_first,update,correct,16,1023,3027,3350,0,0.465782544292153,3.59333177058063,1450,-5.29773164628727,2425,-0.985624492332519,-4.31537803169481,0,NaN
209049931,194,b_2,red,red,Y,color_change,figure_change,not_first,update,correct,10,1017,3021,2250,0,7.34247208837733,12.2066199782331,900,0.678737046325651,125,1.07769838640988,6.73916386693796,0,NaN
209049931,196,b_2,blue,red,Y,no_color_change,figure_change,not_first,no_update,correct,7,1015,3019,3450,0,-0.0428054368138778,3.62186280277328,1125,-4.1021632323037,625,0.95039313181131,-2.05766291398378,0,NaN
209049931,197,b_2,red,red,Y,color_change,no_figure_change,not_first,update,correct,92,1100,3105,2150,0,-3.7803310529107,8.57648442022715,75,-17.9449381404537,2000,7.7167769773868,-13.524352906772,0,NaN
209049931,204,b_3,red,red,Y,color_change,no_figure_change,not_first,update,correct,8,1015,3021,2825,0,0.711413510218953,5.01141563416475,2225,-3.43742735867382,675,1.45521473174055,1.35172571908943,0,NaN
209049931,208,b_0,red,red,X,color_change,no_figure_change,not_first,update,correct,12,1020,3025,3500,0,3.31340873491213,8.13376206461344,2450,-2.41894517441648,100,-0.958884740064207,8.13376206461344,0,NaN
209049931,213,b_1,blue,red,Y,no_color_change,figure_change,not_first,no_update,correct,13,1021,3025,3525,0,1.76174912380291,5.5768717517513,1575,-2.37905968311729,200,1.17403295098104,2.38393833385467,0,NaN
209049931,214,b_1,blue,red,X,no_color_change,figure_change,not_first,no_update,correct,21,1027,3032,3525,0,1.22608994154548,4.20704610700061,2450,-1.92248271057703,225,0.0112360181798721,4.20704610700061,0,NaN
209049931,215,b_1,red,red,X,color_change,no_figure_change,not_first,update,correct,11,1019,3023,3525,0,-5.52703700639752,-2.05683991544475,50,-9.67816869236191,650,-2.05683991544475,-3.33575091820906,0,NaN
209049931,219,b_2,red,red,Y,color_change,no_figure_change,not_first,update,correct,21,1027,3033,3300,0,-4.888369378583,-0.988567423198702,50,-11.7398088393665,2450,-0.988567423198702,-11.7398088393665,0,NaN
209049931,222,b_2,red,red,Y,color_change,no_figure_change,not_first,update,correct,26,1033,3038,3450,0,3.28653989800674,8.19019746865996,1500,-0.621219206806558,125,1.09218724071867,3.85554164340992,0,NaN
209154863,8,b_0,red,blue,Y,no_color_change,no_figure_change,not_first,no_update,correct,16,1022,3028,3525,0,1.67501439787236,5.08758114465475,1300,-1.53374107969823,1825,0,1.00209313427477,1,150
209154863,13,b_1,blue,blue,X,color_change,figure_change,not_first,update,correct,11,1017,3022,3300,0,-4.23073273032201,6.30146832323648,3300,-14.3618441318411,1175,0,6.30146832323648,0,NaN
209154863,18,b_1,blue,blue,Y,color_change,figure_change,not_first,update,correct,15,1022,3027,3525,0,3.31936425437364,9.84949443783792,3350,-4.54060258748693,200,-1.12243278555947,9.84949443783792,0,NaN
209154863,20,b_1,red,blue,X,no_color_change,figure_change,not_first,no_update,correct,15,1022,3028,3350,0,3.37559687193137,9.17219534355957,1525,-9.24923742989274,3100,2.21516933557481,-7.8578740989949,1,200
209154863,21,b_1,blue,blue,X,color_change,no_figure_change,not_first,update,correct,202,1210,3215,3475,0,7.96452233827753,21.1109723423358,2850,-8.83480572240538,800,6.4382951549013,15.855144250142,0,NaN
209154863,25,b_2,blue,blue,X,color_change,figure_change,not_first,update,correct,22,1030,3037,3350,0,2.22591975354275,9.52315520445116,3125,-4.81326379831179,1100,-0.297644842901448,8.68328094248562,0,NaN
209154863,29,b_2,red,blue,Y,no_color_change,figure_change,not_first,no_update,correct,21,1029,3034,3425,0,4.58280708643327,15.0402143014772,1400,-8.5434360340243,3000,0.654178856956818,-7.50382915312898,0,NaN
209154863,30,b_2,blue,blue,Y,color_change,no_figure_change,not_first,update,correct,104,1112,3118,1800,0,6.5659695903705,23.9671156200805,825,-7.73832429595942,225,-0.233222552620845,9.9070608127806,0,NaN
209154863,35,b_3,blue,blue,X,color_change,figure_change,not_first,update,correct,3,1010,3017,3500,0,2.83329464906027,6.86284724030992,1900,-2.54315868435036,150,0.46970123181535,5.88038159535195,1,150
209154863,38,b_3,blue,blue,X,color_change,figure_change,not_first,update,correct,12,1018,3024,3250,0,10.3614872784357,19.3363797191274,1475,-0.0509618441392661,300,0.0652796955879182,13.917922309882,0,NaN
209154863,40,b_3,red,blue,X,no_color_change,no_figure_change,not_first,no_update,correct,11,1018,3022,3525,0,-8.54376240289678,0.377945371083413,50,-17.2022147555724,2025,0.377945371083413,-2.75424731437225,0,NaN
209154863,45,b_0,blue,blue,X,color_change,no_figure_change,not_first,update,correct,4,1011,3016,3500,0,-0.567524455982869,4.2389025385886,1375,-5.63027754673372,2000,0.494647230857083,-2.54050511129083,0,NaN
209154863,47,b_0,red,blue,Y,no_color_change,figure_change,not_first,no_update,correct,4,1012,3018,3225,0,-4.75086292437538,7.64057569960573,1375,-20.7149805354519,2550,-1.17819282611477,-15.9680005503967,0,NaN
209154863,50,b_1,blue,blue,X,color_change,no_figure_change,not_first,update,correct,15,1021,3027,3400,0,15.9232711464251,23.2844135538884,2425,-0.140321372731933,425,0.79147560799359,21.0193007581033,0,NaN
209154863,54,b_2,red,blue,X,no_color_change,no_figure_change,not_first,no_update,correct,633,1639,3644,2400,0,16.5034522519003,24.1426438845293,425,2.48961086118901,1975,17.1133323919227,11.7535958524137,0,NaN
209154863,55,b_2,red,blue,X,no_color_change,no_figure_change,not_first,no_update,correct,23,1030,3035,3250,0,10.2665428726845,20.2707927664372,1475,-3.0861897086637,50,-3.0861897086637,8.92852151714757,0,NaN
209154863,56,b_2,red,blue,X,no_color_change,no_figure_change,not_first,no_update,correct,13,1020,3024,3525,0,1.82804629509318,8.07795768678534,725,-7.52439150967876,3350,0.959875101631297,-7.52439150967876,0,NaN
209154863,57,b_2,blue,blue,X,color_change,no_figure_change,not_first,update,correct,22,1029,3034,3525,0,11.1520386051034,18.9558567517523,1525,-2.32671252832242,425,-1.33106352649968,11.9774046669091,1,125
209154863,62,b_3,blue,blue,X,color_change,no_figure_change,not_first,update,correct,25,1032,3036,3450,0,12.0572713031047,21.7851666308172,1350,0.0765560420294804,75,0.0765560420294804,10.8197856893397,1,125
209154863,65,b_3,blue,blue,X,color_change,figure_change,not_first,update,correct,10,1018,3023,3525,0,2.64333847361121,7.13613904299584,2000,-4.35332871012483,275,-0.393550624133155,-0.298413661581137,0,NaN
209154863,69,b_0,red,blue,X,no_color_change,figure_change,not_first,no_update,correct,5,1013,3019,3500,0,-2.11462254843412,1.1222511802187,1500,-5.11746538179727,400,-0.318496739906664,-1.91023845518879,1,125
209154863,70,b_0,red,blue,X,no_color_change,no_figure_change,not_first,no_update,correct,17,1024,3030,3525,0,-7.12570511032689,1.30218703096763,750,-17.5869911477318,2300,-2.06852850185314,-11.4914846693417,0,NaN
209154863,71,b_0,red,blue,X,no_color_change,no_figure_change,not_first,no_update,correct,6,1013,3019,3500,0,2.21004212994394,8.68785015904979,1450,-3.68591899527408,2675,-0.467602015353833,1.51759094913444,1,150
209154863,76,b_1,red,blue,X,no_color_change,no_figure_change,not_first,no_update,correct,14,1021,3027,3425,0,-1.65697626048478,5.76634883863481,3150,-9.98315391655588,625,-0.184102116434545,4.8623250131577,0,NaN
209154863,77,b_1,red,blue,Y,no_color_change,figure_change,not_first,no_update,correct,3,1010,3014,3500,0,0.208505103725818,5.28241312618312,2825,-5.07235802268677,350,-2.23990265939626,4.09134725068289,0,NaN
209154863,81,b_2,red,blue,X,no_color_change,figure_change,not_first,no_update,correct,10,1019,3023,3525,0,0.223871547298851,3.65764402703716,525,-3.3351579525722,3125,1.79448226941631,-1.75696481765084,0,NaN
209154863,82,b_2,blue,blue,X,color_change,no_figure_change,not_first,update,correct,21,1028,3033,3475,0,-2.00877754000598,3.83694744144478,1425,-6.8389244547589,575,0.359362272586182,-4.40234408364704,0,NaN
209154863,89,b_3,blue,blue,X,color_change,no_figure_change,not_first,update,correct,15,1021,3027,3375,0,1.64825016691028,9.82646834877491,3100,-10.459723582727,750,0.772533629230011,8.58827502448908,0,NaN
209154863,91,b_3,red,blue,Y,no_color_change,no_figure_change,not_first,no_update,correct,13,1020,3025,3525,0,-0.663652594696342,3.87716335099685,2825,-7.46251337656813,700,-5.80252962184603,-3.64014560582423,0,NaN
209154863,92,b_3,blue,blue,X,color_change,figure_change,not_first,update,correct,24,1032,3038,3350,0,-1.79995600451076,3.7466047338478,3350,-7.16678928099104,2425,-0.487364971424753,3.7466047338478,2,200
209154863,94,b_3,red,blue,X,no_color_change,figure_change,not_first,no_update,correct,22,1029,3037,3425,0,-3.23851337074986,3.6490135038581,1400,-10.9982569547925,2375,-1.82693057537354,-5.78113506598069,0,NaN
209154863,95,b_3,red,blue,Y,no_color_change,figure_change,not_first,no_update,correct,10,1016,3021,3450,0,0.520453511005441,10.6217977185505,2000,-11.8581904389459,3100,-0.727783706394291,-7.00585717852353,0,NaN
209154863,98,b_0,blue,red,Y,no_color_change,no_figure_change,not_first,no_update,correct,14,1021,0,1975,0,9.93468010641791,16.1927540645249,1825,2.40783975367542,125,3.00546448087432,14.9078397536754,0,NaN
209154863,99,b_0,blue,red,Y,no_color_change,no_figure_change,not_first,no_update,correct,1576,2583,4588,675,0,-1.77266825986105,1.32363662801852,125,-4.26516355616772,675,-0.353629498880125,-2.34332557139135,0,NaN
209154863,105,b_1,blue,red,X,no_color_change,figure_change,not_first,no_update,correct,20,1027,3031,3525,0,-0.0975721263425331,6.17622916972158,2175,-6.02622251212273,525,-0.417658985988709,2.55668650462577,0,NaN
209154863,106,b_1,red,red,X,color_change,no_figure_change,not_first,update,correct,9,1015,3021,3300,0,-15.4027614066285,-0.312566316932887,225,-21.9988777826135,2425,-0.312566316932887,-16.0065246869841,1,200
209154863,109,b_1,red,red,X,color_change,no_figure_change,not_first,update,correct,17,1024,3029,3525,0,-2.23278864960238,2.35209168378861,1500,-5.40520057933915,1800,-0.435977971639332,-1.69359863922665,1,200
209154863,112,b_2,blue,red,X,no_color_change,no_figure_change,not_first,no_update,correct,13,1020,3026,3525,0,-2.56887230628922,1.0818514182311,625,-6.42606539648146,1650,0.143094848391314,-1.56550035628094,0,NaN
209154863,113,b_2,blue,red,X,no_color_change,no_figure_change,not_first,no_update,correct,21,1029,3035,3525,0,-1.45263335913347,3.21859606529088,2200,-6.19902284378544,700,-1.35337138958837,-1.18522828736818,0,NaN
209154863,119,b_3,red,red,Y,color_change,no_figure_change,not_first,update,correct,9,1018,3023,3525,0,-8.23605205051543,0.728656470481312,50,-14.9175025734139,2450,0.728656470481312,-12.5126201008818,0,NaN
209154863,126,b_0,red,red,Y,color_change,figure_change,not_first,update,correct,170,1179,3184,3200,0,NaN,NaN,25,NaN,25,NaN,NaN,1,250
209154863,129,b_0,blue,red,X,no_color_change,no_figure_change,not_first,no_update,correct,6,1013,3018,3500,0,9.66448632244707,18.3899083173354,2200,1.09452495903494,75,1.34009568032755,7.26256737819209,0,NaN
209154863,130,b_0,blue,red,X,no_color_change,no_figure_change,not_first,no_update,correct,16,1024,3029,3525,0,NaN,NaN,25,NaN,25,NaN,NaN,0,NaN
209154863,131,b_0,blue,red,X,no_color_change,no_figure_change,not_first,no_update,correct,4,1011,3016,3275,0,-0.775472723575659,4.53022601009539,1275,-6.97855733118298,3250,-0.0463336288587186,-5.52261214743004,1,275
209154863,134,b_1,red,red,Y,color_change,figure_change,not_first,update,correct,15,1024,3029,3525,0,5.3410019609075,10.1774780683414,2325,-1.48140485863819,50,-1.48140485863819,6.25949124714437,0,NaN
209154863,136,b_1,red,red,X,color_change,no_figure_change,not_first,update,correct,14,1021,3026,3275,0,-5.70632097060605,-0.45086296535942,1400,-13.9354073167555,2725,-0.906273837751343,-6.17275018139948,1,125
209154863,142,b_2,blue,red,Y,no_color_change,figure_change,not_first,no_update,correct,6,1016,3021,3325,0,4.37814456841611,8.82369787298457,625,-2.09796790043653,2675,1.20833623126741,6.57701481423902,0,NaN
209154863,143,b_2,red,red,X,color_change,figure_change,not_first,update,correct,14,1021,3025,3525,0,-3.59408416087484,3.48883888076149,1225,-10.2957127251813,2450,-0.226194565926448,-6.78873195943937,1,150
209154863,145,b_2,red,red,Y,color_change,figure_change,not_first,update,correct,12,1019,3024,3525,0,-0.0939695611756685,4.01135349799817,3125,-3.82725365519111,325,-1.83351304984654,3.36133943762556,0,NaN
209154863,148,b_3,blue,red,Y,no_color_change,no_figure_change,not_first,no_update,correct,7,1015,3021,3525,0,-0.118060078166113,2.80110463742849,1300,-2.74152445818621,1950,1.78865969683096,-1.05990003073083,1,300
209154863,149,b_3,blue,red,X,no_color_change,figure_change,not_first,no_update,correct,19,1025,3030,3525,0,1.12404273899022,5.54490175280144,1500,-6.00048309686092,775,1.45223117235005,1.38060681166574,0,NaN
209154863,150,b_3,blue,red,Y,no_color_change,figure_change,not_first,no_update,correct,5,1011,3017,3325,0,-3.9364709806342,0.339512065544938,50,-10.6531249221779,2375,0.339512065544938,-2.53368142312833,0,NaN
209154863,151,b_3,red,red,X,color_change,figure_change,not_first,update,correct,16,1023,3028,3525,0,-6.18904654287903,0.161406025824959,50,-12.9280675684908,2425,0.161406025824959,-4.11862915898067,0,NaN
209154863,176,b_1,red,red,Y,color_change,figure_change,not_first,update,correct,2,1012,3016,3500,0,-3.82892513788391,1.75328571705087,100,-8.05315215918549,2700,1.1205311344676,-8.04831310609141,0,NaN
209154863,178,b_1,red,red,Y,color_change,no_figure_change,not_first,update,correct,22,1030,3034,3525,0,4.03913669632085,10.7918353293281,3350,-4.98770620251879,425,-0.0734979274908767,10.7918353293281,0,NaN
209154863,180,b_1,red,red,X,color_change,figure_change,not_first,update,correct,22,1030,3035,3525,0,-6.89312298280657,0.28662907520841,1125,-13.5749893969839,3225,-2.46667871818227,-13.3900449845996,0,NaN
209154863,183,b_2,red,red,X,color_change,figure_change,not_first,update,correct,5,1015,3019,3500,0,-2.06978690177678,1.94333582772094,1350,-5.61923172861063,425,-1.07445747069096,0.130539619190145,0,NaN
209154863,185,b_2,blue,red,X,no_color_change,figure_change,not_first,no_update,correct,2,1011,3015,3500,0,-0.476335131710912,2.87417417475991,3275,-4.15765337869074,400,-0.105526177709194,1.80798917040039,0,NaN
209154863,186,b_2,blue,red,Y,no_color_change,figure_change,not_first,no_update,correct,14,1021,3026,3525,0,2.47509160250191,9.07352010301452,2675,-5.96218199888388,600,-0.181024742020028,4.79695846882252,0,NaN
209154863,187,b_2,blue,red,X,no_color_change,figure_change,not_first,no_update,correct,21,1029,3036,3525,0,-9.84394572987491,0.230470151710776,100,-15.6673461158566,1775,0.230470151710776,-8.8851237621015,0,NaN
209154863,188,b_2,blue,red,X,no_color_change,no_figure_change,not_first,no_update,correct,12,1020,3026,3375,0,-2.64859007960865,9.68990177750082,2225,-10.9718389269711,875,-0.257574408736161,-6.07792516098401,0,NaN
209154863,189,b_2,red,red,Y,color_change,figure_change,not_first,update,correct,21,1029,3034,3375,0,-0.447429879419506,12.87725173113,1425,-11.7102639394883,2950,-0.0816134216216682,-6.08861366562056,0,NaN
209154863,192,b_3,red,red,X,color_change,figure_change,not_first,update,correct,9,1018,3024,3525,0,-1.71105513265997,1.49352000917521,1425,-4.69209955100949,2950,-0.678795499050622,-2.40233288165255,0,NaN
211335542,3,b_0,blue,blue,X,color_change,figure_change,not_first,update,correct,7,1013,3018,3500,0,1.80135326093289,5.30671259172262,1075,-2.16704745643946,100,0,3.6496602499889,0,NaN
211335542,14,b_2,blue,blue,Y,color_change,no_figure_change,not_first,update,correct,6,1012,3019,3275,0,6.54896416354185,24.7512713445927,2425,-8.04592003359149,2575,1.53348651674909,1.84519921619857,2,175
211335542,16,b_2,blue,blue,Y,color_change,no_figure_change,not_first,update,correct,4,1012,3018,3475,0,-3.11961964066884,2.37573581817702,300,-6.90415225826888,2425,-0.727503101655103,-2.8009925296307,0,NaN
211335542,19,b_2,blue,blue,Y,color_change,figure_change,not_first,update,correct,14,1021,3026,3500,0,-1.08668651851891,16.3085426885442,2750,-17.5949671754268,175,-14.9880901991053,10.9155192590195,1,125
211335542,21,b_2,blue,blue,Y,color_change,figure_change,not_first,update,correct,11,1019,3024,2550,0,23.2904714789145,51.5872684463945,2000,-4.30488145676006,1675,14.5749885166757,42.4230938484715,0,NaN
211335542,27,b_3,red,blue,X,no_color_change,no_figure_change,not_first,no_update,correct,9,1016,3020,3475,0,8.33023483357388,22.3342129297701,2750,-4.41008035366322,2650,0,5.62326894528752,1,350
211335542,28,b_3,red,blue,X,no_color_change,no_figure_change,not_first,no_update,correct,19,1026,3031,3375,0,3.49360204771187,14.6957286942395,2525,-12.4432410478576,2500,2.83544303797468,5.55608204156231,2,125
211335542,29,b_3,blue,blue,Y,color_change,figure_change,not_first,update,correct,6,1013,3018,3100,0,0.334341161772991,12.0149450454861,2700,-12.9642082837945,2900,-3.27386876550051,-3.10117763515368,0,NaN
211335542,31,b_3,red,blue,X,no_color_change,no_figure_change,not_first,no_update,correct,5,1011,3017,3250,0,-8.57772928839209,1.16263374571054,2100,-18.9167441063632,450,-4.16590957466138,-10.1690867653395,1,275
211335542,32,b_3,blue,blue,X,color_change,no_figure_change,not_first,update,correct,16,1022,3028,3500,0,4.24397933491428,11.0934094752992,925,-6.05564234966776,2975,4.78084408754457,-6.05564234966776,1,125
211335542,35,b_0,red,blue,X,no_color_change,figure_change,not_first,no_update,correct,23,1032,3036,3325,0,6.27933730648987,14.9419611870729,1050,-1.69601995383982,125,-0.968630261442698,-0.032447561918417,0,NaN
211335542,36,b_0,red,blue,Y,no_color_change,figure_change,not_first,no_update,correct,20,1027,3031,3400,0,1.14843030925047,8.22026229344876,2800,-6.49756054362656,600,2.38023417674228,-0.138923096933453,1,125
211335542,37,b_0,blue,blue,X,color_change,figure_change,not_first,update,correct,22,1028,3032,3375,0,0.827687264875679,8.42284694570587,875,-7.33563276557777,2525,0.0508716091142816,-2.40108668149313,1,225
211335542,41,b_0,red,blue,X,no_color_change,figure_change,not_first,no_update,correct,19,1025,3030,3200,0,-12.5618654760133,7.84707961562404,100,-29.4626225621725,575,-10.8007355519144,-17.5461568366498,0,NaN
211335542,42,b_0,blue,blue,Y,color_change,figure_change,not_first,update,correct,22,1029,3034,3150,0,-6.99057582339367,8.4379860439699,2825,-18.6985056118374,2500,-4.94530034890076,-12.8273571818908,1,175
211335542,44,b_0,blue,blue,Y,color_change,figure_change,not_first,update,correct,7,1016,3020,3225,0,-0.522782826905475,23.601122968296,2850,-19.9675417505126,2600,-0.704442042146709,8.75256303081628,0,NaN
211335542,48,b_1,red,blue,Y,no_color_change,figure_change,not_first,no_update,correct,3,1009,3014,3225,0,12.255095537358,38.0686142322097,1500,-6.27805243445692,2850,5.69468164794007,19.6266666666667,0,NaN
211335542,49,b_1,red,blue,Y,no_color_change,no_figure_change,not_first,no_update,correct,14,1020,3025,2975,0,3.11530117516414,24.8402566700439,2000,-20.0118878757177,2450,9.33198243836542,-0.631678486997629,1,250
211335542,50,b_1,blue,blue,X,color_change,figure_change,not_first,update,correct,22,1028,3033,3200,0,-6.04819605471059,1.81751484025878,325,-14.39107480927,225,-10.7958072741638,-2.77565427968949,1,250
211335542,52,b_1,red,blue,Y,no_color_change,figure_change,not_first,no_update,correct,22,1028,3033,3450,0,-5.43586652107883,-0.0296310676635585,1775,-11.0914705949969,2125,-1.99626546371344,-6.09965745464019,0,NaN
211335542,53,b_1,blue,blue,Y,color_change,no_figure_change,not_first,update,correct,11,1017,3021,3425,0,3.26635034678034,13.8366300448683,1425,-8.85276687620183,2325,2.76434603663679,-0.885276687620177,1,150
211335542,57,b_2,blue,blue,X,color_change,no_figure_change,not_first,update,correct,6,1012,3016,3500,0,-1.61596055860996,2.20030349013658,1025,-8.03907566775706,400,-0.289418275566945,-3.76684816566991,2,262.5
211335542,59,b_2,red,blue,Y,no_color_change,figure_change,not_first,no_update,correct,9,1016,3021,3300,0,4.35910202891671,15.8132806826699,1175,-6.22475494985258,2875,5.40991399549125,-3.4859677621621,0,NaN
211335542,60,b_2,blue,blue,Y,color_change,no_figure_change,not_first,update,correct,21,1028,3033,3175,0,2.98977564729427,15.3590246026562,2500,-3.24290587125336,1050,3.48211045794325,11.9646321697269,1,150
211335542,65,b_3,blue,blue,Y,color_change,no_figure_change,not_first,update,correct,14,1022,3026,3475,0,-2.73179336148197,4.75093532437616,1275,-14.0974355792807,450,0.0654978412196101,-4.04691322725348,0,NaN
211335542,67,b_3,red,blue,Y,no_color_change,no_figure_change,not_first,no_update,correct,29,1036,3039,2875,0,-7.38590692260448,11.4634566172842,1975,-33.5724039796656,1775,-13.1620439966492,-26.6527431922243,2,125
211335542,72,b_0,red,red,X,color_change,no_figure_change,not_first,update,correct,30,1039,3049,3325,0,-1.25684710422819,3.81967382328654,1375,-7.35213666391412,350,-4.04133980181668,-0.971562758051192,1,125
211335542,77,b_1,red,red,Y,color_change,no_figure_change,not_first,update,correct,12,1022,3031,3225,0,-2.05252026813571,12.3188485717437,2475,-11.5506782838866,2025,-0.592809087901173,-7.25653468622477,2,212.5
211335542,79,b_1,red,red,X,color_change,no_figure_change,not_first,update,correct,45,1055,3065,3400,0,-5.0484182981019,4.94713335156321,200,-13.4455483648811,525,-4.76964522630369,-2.86563566574506,2,225
211335542,82,b_1,blue,red,X,no_color_change,no_figure_change,not_first,no_update,correct,20,1030,3040,3250,0,-5.42873415644302,15.4667662629708,2225,-20.9964505757694,850,4.23972064281405,-4.59831957354673,1,125
211335542,83,b_1,blue,red,Y,no_color_change,figure_change,not_first,no_update,correct,8,1016,3031,3300,0,2.5195858530663,20.5778181405381,1875,-14.0918378930639,1650,0.685094789419907,3.18083777954365,2,212.5
211335542,84,b_1,blue,red,Y,no_color_change,no_figure_change,not_first,no_update,correct,18,1027,3038,3250,0,-2.23088562122118,16.768875255071,800,-16.0031892322869,675,0.31757185907918,-6.30116623197611,0,NaN
211335542,85,b_1,red,red,Y,color_change,no_figure_change,not_first,update,correct,5,1015,3025,2275,0,2.33503101933363,24.4911107531839,1875,-16.1950357958111,1700,-1.47348777277297,18.9154063616016,1,275
211335542,87,b_1,blue,red,X,no_color_change,no_figure_change,not_first,no_update,correct,31,1043,3053,1575,0,-9.16604711578857,5.94081123400781,750,-23.9734699506362,1475,-15.0087195602649,-19.0305760121965,0,NaN
211335542,88,b_1,blue,red,Y,no_color_change,figure_change,not_first,no_update,correct,10,1020,3030,3000,0,-9.98566744930477,9.53485107513674,125,-27.0591538280283,600,-6.44480429954427,-12.6640028476459,1,275
211335542,89,b_1,red,red,Y,color_change,no_figure_change,not_first,update,correct,22,1031,3042,2125,0,15.5894617229072,42.8057480067727,1850,-9.53550541553324,600,3.31651891695205,1.6476954272417,0,NaN
211335542,92,b_2,blue,red,Y,no_color_change,no_figure_change,not_first,no_update,correct,9,1020,3030,3125,0,7.7158615746885,16.9502155779701,2875,-0.764142854112947,2600,0.89745881597247,6.77063291752893,0,NaN
211335542,93,b_2,red,red,X,color_change,figure_change,not_first,update,correct,20,1032,3041,2925,0,8.02675402029681,28.1825539333567,2625,-9.80851736571414,2650,3.45805860221448,17.2612848858965,1,200
211335542,96,b_2,red,red,X,color_change,no_figure_change,not_first,update,correct,6,1017,3027,2425,0,-11.6670539600632,7.85425374900008,825,-31.5130074247665,1800,0.396363103755192,-9.07060851538471,0,NaN
211335542,98,b_2,red,red,Y,color_change,no_figure_change,not_first,update,correct,5,1013,3025,2525,0,-2.26260645537774,18.7332771685019,2275,-24.2908778266681,525,7.19362784457989,4.16492695689556,0,NaN
211335542,100,b_2,blue,red,Y,no_color_change,no_figure_change,not_first,no_update,correct,17,1027,0,2275,0,2.81405499567265,27.0386586397333,75,-21.7174983830041,50,-21.7174983830041,14.9081491063679,0,NaN
211335542,101,b_2,blue,red,X,no_color_change,figure_change,not_first,no_update,correct,482,1491,3501,2000,0,-7.64919788640139,12.0214580024737,1750,-30.0643788864575,275,9.46337917188114,-25.9391535359597,0,NaN
211335542,102,b_2,blue,red,X,no_color_change,no_figure_change,not_first,no_update,correct,15,1024,3033,2850,0,0.542344488871206,28.022317169952,2125,-23.7312320135955,1650,19.2090123743791,17.6592089054914,0,NaN
211335542,103,b_2,red,red,X,color_change,no_figure_change,not_first,update,correct,4,1010,3016,825,0,-0.976772136082916,16.3078167949832,825,-18.6258433785118,625,2.41250877589633,16.3078167949832,0,NaN
211335542,108,b_3,blue,red,Y,no_color_change,figure_change,not_first,no_update,correct,10,1017,3023,3525,0,0.833931074303349,9.25997968099725,1775,-4.9705990187545,225,-4.47046048009942,6.23563885911318,1,125
211335542,109,b_3,red,red,X,color_change,figure_change,not_first,update,correct,21,1030,3035,2875,0,0.486698637196325,19.6239455060742,2450,-15.2316710034197,2475,1.4584748993155,13.5182392230306,1,325
211335542,111,b_3,blue,red,X,no_color_change,figure_change,not_first,no_update,correct,20,1027,3031,3450,0,-6.99358835338015,5.39831565086433,600,-17.9713157778774,575,-1.1234178445619,-1.38055455471543,0,NaN
211335542,112,b_3,blue,red,Y,no_color_change,figure_change,not_first,no_update,correct,6,1013,3019,2725,0,7.29320705480238,32.3213441941878,2625,-14.0018246710986,2350,-4.00298366414165,1.22407496010389,1,125
211335542,113,b_3,blue,red,X,no_color_change,figure_change,not_first,no_update,correct,22,1029,3034,3025,0,-19.3614160874153,2.26675911557214,50,-36.2916983084051,125,2.26675911557214,-25.4927856836266,0,NaN
211335542,114,b_3,red,red,Y,color_change,figure_change,not_first,update,correct,25,1031,3037,1525,0,-8.88653197463148,4.86009096793148,175,-29.4161307923576,750,-14.1104118298073,-16.4223845615182,1,150
211335542,116,b_3,blue,red,X,no_color_change,figure_change,not_first,no_update,correct,2,1009,3014,2700,0,17.032928284944,40.0301131916526,2375,-0.86347533893057,1775,16.0184576890797,26.2585145206565,0,NaN
211335542,117,b_3,blue,red,X,no_color_change,no_figure_change,not_first,no_update,correct,14,1021,3027,2550,0,-13.0441724038544,6.03641977861406,1425,-34.671390301844,2250,-4.68687537046993,-12.3186707653851,0,NaN
211335542,120,b_0,blue,red,X,no_color_change,no_figure_change,not_first,no_update,correct,5,1011,3017,3250,0,-4.246117549885,5.51743453297857,1700,-12.1902967498822,1250,1.31226846252753,-1.62925997122888,1,150
211335542,121,b_0,blue,red,Y,no_color_change,figure_change,not_first,no_update,correct,21,1030,3036,3250,0,-6.26278562924812,0.64572032819629,2625,-14.9994125364717,2550,-2.40248105430121,-7.41295748722267,1,375
211335542,122,b_0,blue,red,X,no_color_change,figure_change,not_first,no_update,correct,53,1061,3066,3375,0,-2.33124366304873,13.6960989351308,425,-17.5886116790932,2750,-15.3894197253472,-7.99286804589123,0,NaN
211335542,123,b_0,blue,red,Y,no_color_change,figure_change,not_first,no_update,correct,15,1022,3026,3325,0,-8.33151073825899,7.12614386655855,675,-24.6524318828269,750,-5.42697916264463,-12.4092307296292,1,175
211335542,124,b_0,blue,red,X,no_color_change,figure_change,not_first,no_update,correct,2,1009,3016,3150,0,6.68871060479476,33.1618411220572,700,-10.9571784807336,725,7.92986856081103,22.5822890631486,1,125
211335542,125,b_0,red,red,X,color_change,no_figure_change,not_first,update,correct,14,1020,3026,2850,0,0.294561148431209,26.7823490604967,400,-16.7912065961043,1850,1.12545897541705,-7.90607332567608,0,NaN
211335542,128,b_0,blue,red,Y,no_color_change,no_figure_change,not_first,no_update,correct,274,1280,0,1675,0,0.184592539148619,20.0230333271125,300,-22.9793043836989,1025,7.67908534608925,1.91780687365556,0,NaN
211335542,129,b_0,red,red,Y,color_change,no_figure_change,not_first,update,correct,810,1818,3823,1650,0,-5.9790370592378,13.3933910178707,125,-28.7069372674839,800,0.299667992061586,-5.32608670362882,1,125
211335542,133,b_1,blue,red,X,no_color_change,no_figure_change,not_first,no_update,correct,19,1026,3031,2850,0,21.7806046335155,53.1710247532427,200,-4.61571753397757,2775,29.052762131156,25.7496382615885,1,125
211335542,134,b_1,red,red,X,color_change,no_figure_change,not_first,update,correct,5,1014,3018,2600,0,20.3359296914033,44.5112747787079,1725,-0.544344433372174,100,13.9968254689574,37.7129743538141,1,225
211335542,141,b_2,red,red,X,color_change,no_figure_change,not_first,update,correct,11,1019,3023,3400,0,-4.03805103914854,2.15944184509239,750,-10.404466065545,1900,0.537084663134308,-4.22954172218263,0,NaN
211335542,143,b_2,blue,red,Y,no_color_change,no_figure_change,not_first,no_update,correct,10,1017,3022,2850,0,9.0203447960851,34.5078643931334,2675,-11.0535698881445,2150,-2.08298588147339,29.6635707507836,1,275
211335542,144,b_2,red,red,Y,color_change,no_figure_change,not_first,update,correct,107,1116,3121,2200,0,-9.57623028891946,11.2849825378347,1850,-32.6172293364377,525,2.55925494761351,0.242142025611173,0,NaN
211335542,148,b_2,red,red,Y,color_change,figure_change,not_first,update,correct,16,1023,3028,1600,0,2.12334155514102,18.7059928023783,1500,-21.8705992802378,600,-8.94886363636364,8.16260170552339,0,NaN
211335542,150,b_2,blue,red,Y,no_color_change,figure_change,not_first,no_update,correct,15,1021,3027,2800,0,-7.65131837241347,16.1110601281872,2725,-30.3959119208273,50,-30.3959119208273,1.53979163547316,0,NaN
211335542,151,b_2,blue,red,Y,no_color_change,no_figure_change,not_first,no_update,correct,3,1009,3014,3225,0,-18.3292640511043,-0.153889168976477,2000,-31.3645500117784,2625,-9.40903476926532,-26.0356697040881,0,NaN
211335542,152,b_2,red,red,Y,color_change,no_figure_change,not_first,update,correct,14,1021,3025,2875,0,7.27215251575393,30.9187437614825,1775,-13.7645203755407,1825,11.5630650831079,17.6660349790965,0,NaN
211335542,155,b_3,blue,red,Y,no_color_change,figure_change,not_first,no_update,correct,10,1017,3022,3500,0,-5.9447507984933,2.18651659909845,375,-16.7928254850263,2875,0.797824587266931,-16.791880475151,0,NaN
211335542,156,b_3,blue,red,Y,no_color_change,no_figure_change,not_first,no_update,correct,21,1028,3033,2100,0,8.35682493635957,33.028565103795,1975,-11.905767488735,975,-2.52358579871316,26.8937816212815,0,NaN
211335542,157,b_3,red,red,Y,color_change,no_figure_change,not_first,update,correct,159,1166,3171,2150,0,5.50354106618092,28.9457893157737,400,-17.6043920181492,875,4.98497218142867,-10.5805317373843,0,NaN
211335542,159,b_3,blue,red,X,no_color_change,figure_change,not_first,no_update,correct,150,1156,3161,3125,0,2.6782915437686,20.1693882926187,850,-9.40222997739295,2300,-0.218388534053247,4.9260881016659,1,200
211335542,160,b_3,blue,red,X,no_color_change,no_figure_change,not_first,no_update,correct,16,1023,3028,2850,0,-2.38123707121059,12.6965799630093,1050,-14.5129734757369,2025,-1.68569656927205,-5.53631183381977,0,NaN
211335542,166,b_0,blue,blue,Y,color_change,figure_change,not_first,update,correct,14,1021,3025,3500,0,5.53735370778448,11.2613834528192,1400,-0.388555189562751,125,0.587999741652141,3.34043789963185,0,NaN
211335542,170,b_0,red,blue,X,no_color_change,no_figure_change,not_first,no_update,correct,15,1023,3028,3350,0,0.982056464683227,7.57489285341909,2200,-5.34580495755294,375,-3.85425869931458,2.13909025556038,1,125
211335542,171,b_0,red,blue,X,no_color_change,no_figure_change,not_first,no_update,correct,23,1029,3033,3350,0,1.29692835284828,17.7862070069301,2400,-11.4272072043234,2175,-1.15555128759141,13.0816805345862,0,NaN
211335542,172,b_0,blue,blue,Y,color_change,figure_change,not_first,update,correct,10,1016,3020,3375,0,-13.1280908162423,3.74488589238129,125,-26.832192218425,2975,-0.538999644539032,-26.832192218425,0,NaN
211335542,174,b_0,blue,blue,Y,color_change,figure_change,not_first,update,correct,9,1014,3018,2925,0,8.80927700577432,32.2427022542707,1950,-3.89624556135733,775,3.13123455266232,3.81787857997881,1,200
211335542,180,b_1,red,blue,X,no_color_change,figure_change,not_first,no_update,correct,39,1047,3051,3050,0,-12.4592318153421,3.32657514234342,425,-25.1339151932874,775,-3.321658675457,-23.0200685495955,1,300
211335542,184,b_2,blue,blue,X,color_change,no_figure_change,not_first,update,correct,4,1011,3015,3300,0,17.2234271123529,37.5369966916808,775,0.265956588396676,50,0.265956588396676,8.76978939724037,0,NaN
211335542,186,b_2,red,blue,X,no_color_change,no_figure_change,not_first,no_update,correct,27,1034,3037,3375,0,-0.558231804061245,6.88553483829074,1875,-7.5436126617229,1450,-3.22681858114929,0.00381968885905337,0,NaN
211335542,187,b_2,blue,blue,X,color_change,no_figure_change,not_first,update,correct,14,1021,3024,3225,0,3.11586869099035,23.6126211637472,2525,-7.38947852848965,2175,-0.551960192136207,-6.88210084275318,0,NaN
211335542,190,b_2,red,blue,Y,no_color_change,figure_change,not_first,no_update,correct,23,1030,3035,1750,0,-0.471515801289545,18.0828277723594,950,-24.9517660588915,525,-9.53815853793891,3.30966308267428,1,250
211335542,191,b_2,red,blue,Y,no_color_change,no_figure_change,not_first,no_update,correct,63,1069,3075,2750,0,-10.9140427515865,9.7384393063584,150,-22.9619460500963,1025,-11.3964354527938,-12.8302023121387,1,150
211335542,192,b_2,red,blue,Y,no_color_change,no_figure_change,not_first,no_update,correct,21,1028,3033,3500,0,2.37385095067535,21.7536752992581,1700,-13.8258954986118,2325,-1.14781985344318,6.17347867643713,0,NaN
211335542,193,b_2,blue,blue,Y,color_change,no_figure_change,not_first,update,correct,24,1033,3037,3150,0,7.10895534762912,29.8151679208235,600,-12.7240173879487,550,4.84524498620995,5.45614990863382,0,NaN
211335542,196,b_3,red,blue,X,no_color_change,figure_change,not_first,no_update,correct,12,1020,3024,775,0,4.50581463683286,12.9290456473338,125,-11.0408418210576,50,-11.0408418210576,9.54982319339922,1,125
211335542,197,b_3,red,blue,Y,no_color_change,figure_change,not_first,no_update,correct,22,1029,3035,3250,0,-7.65163536984116,7.98808632814196,2025,-20.3127594301668,1775,-2.31683112676669,-11.6168518173203,2,162.5
211335542,198,b_3,blue,blue,X,color_change,figure_change,not_first,update,correct,9,1017,0,1575,0,7.01695069958839,36.0666413102359,1025,-13.855560550004,375,-1.66516833212314,14.1437018083745,0,NaN
211335542,200,b_3,blue,blue,X,color_change,figure_change,not_first,update,correct,8,1015,3019,2875,0,-3.5023562356039,22.0950706461948,2875,-27.8877791356798,325,-10.9131284284556,6.15832573218728,0,NaN
211335542,202,b_3,blue,blue,X,color_change,figure_change,not_first,update,correct,83,1090,3097,1325,0,-3.32661043208552,21.0216478877067,250,-29.2825786752372,400,9.37432836705806,10.249087814386,0,NaN
211335542,213,b_0,red,red,Y,color_change,figure_change,not_first,update,correct,4,1011,3017,3425,0,0.581055517927,5.87725494321626,1150,-5.9253470395808,2850,0.368956551796686,-4.57651402435664,0,NaN
211335542,222,b_1,red,red,Y,color_change,figure_change,not_first,update,correct,15,1023,3028,3325,0,4.84510480062729,11.784348214535,2100,-6.03400619817405,2875,2.42035904737973,0.216098500711951,0,NaN
211335542,227,b_2,blue,red,X,no_color_change,figure_change,not_first,no_update,correct,4,1014,3025,3300,0,2.53587238398063,9.28295456592973,1100,-4.32178369459739,2600,1.5299989446508,-1.15882490727084,0,NaN
211335542,228,b_2,red,red,Y,color_change,figure_change,not_first,update,correct,14,1024,3035,3325,0,-3.39892416120461,5.99077418773828,1725,-14.489128150735,2600,-0.201376867426475,-10.5158750012508,0,NaN
211335542,230,b_2,blue,red,X,no_color_change,figure_change,not_first,no_update,correct,13,1023,3034,3325,0,0.521305160549718,7.6236938689557,875,-7.18096307735505,2425,-1.71000381059345,-1.63103427528529,0,NaN
211335542,231,b_2,red,red,Y,color_change,figure_change,not_first,update,correct,22,1031,3042,3275,0,0.876841571854546,3.63592902741367,1425,-3.286210542999,400,0.621490798454587,0.831425817330555,1,125
211335542,233,b_2,blue,red,X,no_color_change,figure_change,not_first,no_update,correct,168,1178,3188,3450,0,7.88804357829758,14.5511567580192,2975,1.60786723348411,175,2.30044846789687,14.5511567580192,0,NaN
211335542,234,b_2,red,red,X,color_change,no_figure_change,not_first,update,correct,10,1018,3029,3400,0,-1.51401397166406,2.90955858580095,750,-7.47537133184991,2875,-1.22002244156634,-5.90588805842414,0,NaN
211335542,236,b_2,blue,red,Y,no_color_change,no_figure_change,not_first,no_update,correct,26,1035,3045,2975,0,-1.59913407585068,8.6125099776977,1000,-10.5963812448454,2400,1.6749272721969,-1.97352893598628,1,350
211335542,237,b_2,blue,red,X,no_color_change,figure_change,not_first,no_update,correct,20,1030,3041,3325,0,4.65024112345754,22.6640813436304,1675,-12.0236883450245,1425,4.03288265362572,6.04683454670177,1,200
211335542,238,b_2,red,red,Y,color_change,figure_change,not_first,update,correct,7,1017,3026,2925,0,-5.56371910934896,16.2813611398591,1250,-26.6360904084363,1700,-0.973129127608729,-6.09341146162953,1,250
211335542,241,b_3,blue,red,Y,no_color_change,no_figure_change,not_first,no_update,correct,5,1015,3024,3150,0,3.34592173856968,19.7867370548509,2950,-15.4027533118708,2900,0.992042674677378,2.01031525586583,1,200
211335542,242,b_3,red,red,Y,color_change,no_figure_change,not_first,update,correct,117,1128,3138,2950,0,0.815905070117888,27.6340839141609,2925,-23.893166506256,675,12.5752255444267,5.85040560978963,0,NaN
211335542,245,b_3,blue,red,Y,no_color_change,figure_change,not_first,no_update,correct,23,1032,3042,3375,0,-0.672565720732489,6.58718839141758,1350,-7.92147257017653,2850,-0.994770350159186,-0.103188338801644,2,200
211335542,246,b_3,blue,red,X,no_color_change,figure_change,not_first,no_update,correct,13,1021,3032,3325,0,-0.563942972945451,10.2787042763739,50,-11.4656962360841,2250,10.2787042763739,-4.2738889379749,1,225
211335542,247,b_3,red,red,Y,color_change,figure_change,not_first,update,correct,22,1032,3041,2825,0,4.2335539911672,29.9945449923887,2200,-15.8069555631082,2775,1.2717879001648,-6.18015234036963,0,NaN
211335542,250,b_3,red,red,X,color_change,no_figure_change,not_first,update,correct,14,1027,3036,3475,0,-0.935715178951281,10.1154908763814,75,-13.1912319026814,275,8.96111753619464,-2.76974642337017,0,NaN
306346313,3,b_0,blue,red,X,no_color_change,no_figure_change,not_first,no_update,correct,27,1035,0,800,0,0.861132447778694,21.4348916489339,600,-27.8990424284536,125,0,13.3967733530204,0,NaN
306346313,4,b_0,blue,red,X,no_color_change,no_figure_change,not_first,no_update,correct,530,1536,3542,225,0,-2.82527307628363,6.99087561875986,50,-23.2012431639194,225,6.99087561875986,-4.39862906111823,0,NaN
306346313,5,b_0,red,red,Y,color_change,figure_change,not_first,update,correct,18,1027,0,425,0,-7.82864440601595,2.91161105886077,100,-20.6184991013977,300,0,-16.7158647533733,0,NaN
306346313,12,b_0,red,red,Y,color_change,figure_change,not_first,update,correct,344,1351,3357,675,0,-1.16124134931508,10.8106329613703,50,-12.5341992503373,350,10.8106329613703,3.75540038115871,0,NaN
306346313,14,b_0,red,red,X,color_change,no_figure_change,not_first,update,correct,45,1053,0,150,0,12.5482202783738,16.9648456841063,125,7.84975518512405,75,14.0485228585575,13.0271772019585,0,NaN
306346313,19,b_1,blue,red,Y,no_color_change,no_figure_change,not_first,no_update,correct,499,1508,-23,175,0,-6.80472811894234,0.284843573009525,50,-15.3659126132147,75,0.284843573009525,-8.87422805495918,0,NaN
306346313,20,b_1,blue,red,X,no_color_change,figure_change,not_first,no_update,correct,359,1367,3372,175,0,-8.92062759792684,-5.01273366630733,100,-13.4616742535153,125,-11.1343084042198,-5.85560351929351,0,NaN
306346313,21,b_1,red,red,X,color_change,no_figure_change,not_first,update,correct,243,1251,3256,150,0,-0.0969640403411887,13.1492572139691,50,-6.03380778304944,125,13.1492572139691,-4.40097482564622,0,NaN
306346313,23,b_1,red,red,X,color_change,no_figure_change,not_first,update,correct,36,1043,3049,450,0,1.56552019054641,15.765569021927,50,-14.8360231837146,200,15.765569021927,1.37248019121473,0,NaN
306346313,29,b_2,red,red,Y,color_change,figure_change,not_first,update,correct,23,1032,3037,1150,0,19.1711660907404,39.5193415242849,450,-5.00305960837012,175,21.2126847763486,27.552673257823,0,NaN
306346313,33,b_2,red,red,Y,color_change,no_figure_change,not_first,update,correct,77,1083,3090,600,0,-9.62540272652015,2.28624941030678,150,-21.4164841844865,450,-9.80310700848923,-14.8666061130944,0,NaN
306346313,36,b_2,blue,red,X,no_color_change,figure_change,not_first,no_update,correct,1278,0,753,50,0,5.97586176397276,5.97586176397276,50,5.97586176397276,50,5.97586176397276,5.97586176397276,0,NaN
306346313,37,b_2,blue,red,Y,no_color_change,figure_change,not_first,no_update,correct,741,1750,217,175,0,5.11546503458025,15.6703151585951,150,-3.71587474921908,175,0.634126520557686,-3.71587474921908,0,NaN
306346313,38,b_2,red,red,X,color_change,figure_change,not_first,update,correct,1953,2960,1430,100,0,-12.3959177686684,-9.43051020171845,100,-14.1906945505917,75,-13.5665485536951,-9.43051020171845,0,NaN
306346313,40,b_2,red,red,X,color_change,figure_change,not_first,update,correct,604,1613,77,175,0,-5.6385273134611,-0.696208601901972,125,-10.4025516992064,75,-8.45705320056759,-2.44054191638119,0,NaN
306346313,44,b_3,red,red,X,color_change,figure_change,not_first,update,correct,95,1104,3110,2000,0,-9.52331055473467,7.5291032334803,1250,-30.9936897215548,1575,-7.17489646079841,-30.9936897215548,0,NaN
306346313,49,b_3,red,red,X,color_change,no_figure_change,not_first,update,correct,28,1038,3044,150,0,0.520738899969066,1.95070445067779,50,-1.09587141775366,125,1.95070445067779,0.542603001247855,0,NaN
306346313,51,b_3,red,red,X,color_change,figure_change,not_first,update,correct,699,1707,3713,300,0,0.370472300664231,5.97568563633753,75,-4.26086355344958,275,-1.24922222754033,-2.31496992613155,0,NaN
306346313,57,b_0,red,red,X,color_change,figure_change,not_first,update,correct,22,1029,3034,375,0,-0.0644023251133541,3.90533805301354,125,-3.88024008807965,175,0.275367294510417,-1.44076525115723,0,NaN
306346313,59,b_0,red,red,X,color_change,no_figure_change,not_first,update,correct,16,1023,3028,275,0,-7.89438998719777,2.25456510828862,225,-16.2265632037473,75,-12.3153903237291,-10.0601817893251,0,NaN
306346313,61,b_0,blue,red,Y,no_color_change,no_figure_change,not_first,no_update,correct,44,1050,3056,1125,0,-14.0861203409127,-0.838890262680508,1050,-31.6043646398507,100,-10.5616637332175,-10.508882428605,0,NaN
306346313,62,b_0,red,red,Y,color_change,no_figure_change,not_first,update,correct,4,1011,0,300,0,18.1519762587478,33.6105316409647,125,1.68933705457377,150,16.0941754250343,19.0073155342841,0,NaN
306346313,64,b_0,red,red,Y,color_change,no_figure_change,not_first,update,correct,3,1010,3015,375,0,-3.03372160557866,7.65017153390941,50,-14.6604022672689,100,7.65017153390941,4.47060935587758,0,NaN
306346313,68,b_1,blue,red,X,no_color_change,no_figure_change,not_first,no_update,correct,17,1024,3028,850,0,3.00618964173768,12.5458449539699,250,-11.1271811832071,325,-7.60051336476047,7.97196238615889,1,150
306346313,69,b_1,blue,red,Y,no_color_change,figure_change,not_first,no_update,correct,129,1137,3142,950,0,2.88007527287898,24.9206291281976,175,-17.1791409699668,850,-3.91611624031432,-10.1920714277026,0,NaN
306346313,70,b_1,blue,red,X,no_color_change,figure_change,not_first,no_update,correct,22,1029,0,375,0,-3.68123131979065,20.0839438575697,300,-17.3807570426818,100,-1.96326018836507,-3.0015015247442,0,NaN
306346313,71,b_1,red,red,Y,color_change,figure_change,not_first,update,correct,149,1159,-380,375,0,8.78715408735607,20.4514470408679,100,0.0134173836581084,200,2.80926470341592,9.71993607575071,0,NaN
306346313,73,b_1,blue,red,X,no_color_change,no_figure_change,not_first,no_update,correct,22,1028,3033,1075,0,11.1110748842722,39.7306896797661,575,-19.7769060694672,475,0.438199843092505,7.78489408744026,0,NaN
306346313,74,b_1,red,red,Y,color_change,figure_change,not_first,update,correct,44,1050,3055,1200,0,2.38792265481634,26.4595361004347,475,-21.7982942819313,1150,3.34710987461739,11.9823746039914,0,NaN
306346313,77,b_2,blue,red,X,no_color_change,no_figure_change,not_first,no_update,correct,9,1017,3023,1075,0,-4.98881138519366,13.3476886615193,300,-18.6334157919369,200,-13.9019211394503,-4.1599712278647,0,NaN
306346313,78,b_2,blue,red,Y,no_color_change,figure_change,not_first,no_update,correct,75,1083,3089,600,0,-1.14832814316416,10.9570641802656,225,-11.1436388444194,75,1.45618096560074,-2.40631658102519,0,NaN
306346313,79,b_2,red,red,X,color_change,figure_change,not_first,update,correct,144,1151,0,300,0,-1.18400361054109,9.16033764200638,50,-9.11403057206861,250,9.16033764200638,-6.00558035451941,0,NaN
306346313,81,b_2,blue,red,X,no_color_change,figure_change,not_first,no_update,correct,102,1110,3115,275,0,-7.61256278435041,-2.32102216098642,100,-19.9939543024119,175,-7.56391244252754,-4.2149026445546,0,NaN
306346313,82,b_2,red,red,Y,color_change,figure_change,not_first,update,correct,22,1028,3033,525,0,-7.70438851486433,2.87085165933627,325,-15.981499292175,375,-5.76266790581064,-7.76554243167598,0,NaN
306346313,89,b_3,red,red,Y,color_change,no_figure_change,not_first,update,correct,737,1745,3750,650,0,-2.51492197796528,5.96152132414673,275,-12.8864166146832,600,-7.79000886454136,-7.96964480861502,1,125
306346313,91,b_3,red,red,Y,color_change,figure_change,not_first,update,correct,22,1030,3035,775,0,-3.25031447100307,1.18968994678639,575,-27.402006239757,100,-10.435026251009,-4.93043093460707,1,225
306346313,94,b_3,blue,red,Y,no_color_change,figure_change,not_first,no_update,correct,23,1029,3036,400,0,1.91371324050639,16.5501100489701,275,-10.4289701880013,75,1.03494839202999,7.01873040442706,0,NaN
306346313,95,b_3,red,red,Y,color_change,no_figure_change,not_first,update,correct,125,1132,3137,225,0,-9.04724267777049,-7.14187796926741,125,-11.1340298929457,50,-11.1340298929457,-7.26632481268715,0,NaN
306346313,97,b_3,blue,red,X,no_color_change,figure_change,not_first,no_update,correct,330,1337,0,125,0,6.25609493761652,13.0993355322912,50,0.150102777379416,75,13.0993355322912,6.22568000382428,0,NaN
306346313,98,b_3,blue,red,X,no_color_change,no_figure_change,not_first,no_update,correct,21,1029,3035,1025,0,-15.8597979211318,-4.65079159656615,100,-35.2545187869376,125,-6.73266899616065,-12.7509598377982,1,125
306346313,99,b_3,blue,red,Y,no_color_change,figure_change,not_first,no_update,correct,3,1010,3016,2350,0,-2.80414190359151,16.2633158759449,1075,-19.0688643382654,250,7.74597331765862,-12.9766854731081,0,NaN
306346313,102,b_0,red,red,Y,color_change,figure_change,not_first,update,correct,71,1078,3084,1925,0,-3.45892754631291,19.814839761605,1225,-26.5723058627882,725,-9.26474755310699,-21.1840314391494,0,NaN
306346313,104,b_0,blue,red,Y,no_color_change,figure_change,not_first,no_update,correct,18,1026,3031,1850,0,-3.21179275028162,21.7251104520971,1125,-30.927555528657,1175,3.64364824789689,2.95878472432366,0,NaN
306346313,105,b_0,red,red,X,color_change,figure_change,not_first,update,correct,139,1146,3151,1100,0,-9.10845060747007,4.59424877386725,725,-35.6209636874823,175,2.16852339739648,-1.75553297126545,0,NaN
306346313,107,b_0,red,red,Y,color_change,no_figure_change,not_first,update,correct,3,1009,3015,2500,0,-7.25092511236264,24.8729494860555,1525,-29.047192925368,1425,1.66385927301265,-4.1096414830695,0,NaN
306346313,109,b_0,red,red,Y,color_change,no_figure_change,not_first,update,correct,22,1029,3034,2325,0,0.136383604521089,15.5866209394233,275,-16.2497342680269,1000,4.69250648642142,6.66647884005113,0,NaN
306346313,114,b_1,red,red,Y,color_change,figure_change,not_first,update,correct,17,1025,0,725,0,-1.24168871279677,15.2574548624025,100,-20.1450700593925,500,15.2574548624025,-6.87656723807872,0,NaN
306346313,116,b_1,red,red,X,color_change,no_figure_change,not_first,update,correct,56,1062,3069,550,0,1.14880046386896,16.3210969940267,400,-12.9702437611224,200,4.44895087530521,12.0510238335012,0,NaN
306346313,126,b_1,red,red,Y,color_change,no_figure_change,not_first,update,correct,157,1164,3169,625,0,-2.88288440191656,9.52146768021657,100,-15.6046405972638,450,2.7371467914401,2.8209847920677,0,NaN
306346313,129,b_2,red,red,X,color_change,figure_change,not_first,update,correct,158,1164,3169,2950,0,2.97121529827369,23.3134267411888,325,-17.8327335834418,1500,11.0879718245157,0.192940816170278,0,NaN
306346313,134,b_2,red,red,Y,color_change,figure_change,not_first,update,correct,17,1024,-503,200,0,0.787468025271664,8.41346093418099,150,-3.89288165247622,75,-0.851929221247701,-0.283808819943545,0,NaN
306346313,140,b_3,blue,red,Y,no_color_change,figure_change,not_first,no_update,correct,7,1014,0,850,0,-11.2670338070195,12.2365833418591,625,-37.2865441234981,725,-10.0985574463731,-6.19536427605179,0,NaN
306346313,141,b_3,red,red,X,color_change,figure_change,not_first,update,correct,343,1349,3355,475,0,-1.68618833492717,10.458052716417,475,-12.9367506991402,375,-1.47198126281569,10.458052716417,0,NaN
306346313,143,b_3,red,red,X,color_change,figure_change,not_first,update,correct,21,1029,3035,300,0,3.86791306472895,15.9101411684033,100,-0.804724495525448,125,-0.378635421790918,0.132919915130017,0,NaN
306346313,145,b_3,red,red,X,color_change,figure_change,not_first,update,correct,34,1041,0,525,0,0.622554535909183,13.6522226355217,450,-16.9241417627588,100,-4.52413799597896,-3.97301102253947,0,NaN
306346313,147,b_3,blue,red,Y,no_color_change,figure_change,not_first,no_update,correct,12,1019,3025,2350,0,-9.65796418931819,7.95311593361959,1200,-24.872461413485,1575,-3.87814784727864,-24.872461413485,0,NaN
306346313,148,b_3,blue,red,Y,no_color_change,no_figure_change,not_first,no_update,correct,22,1029,3034,1250,0,4.91209553405919,23.5080825309219,550,-15.4833104190476,1225,15.3497740248264,-6.93846218402352,0,NaN
306346313,149,b_3,red,red,X,color_change,figure_change,not_first,update,correct,11,1018,3023,875,0,-13.035246624958,3.79340432913176,325,-31.9466375114326,150,-23.0467920481902,-11.9573604701282,0,NaN
306346313,153,b_0,blue,blue,Y,color_change,figure_change,not_first,update,correct,21,1030,3035,3150,0,2.78828364883234,24.4775297767991,1125,-16.05970373336,1575,-10.6610949854869,-16.05970373336,0,NaN
306346313,158,b_0,red,blue,X,no_color_change,no_figure_change,not_first,no_update,correct,20,1028,3032,3050,0,-1.11827044901896,24.2821153557137,175,-12.6316620688425,925,-7.66626674512261,-5.39486521115603,1,125
306346313,161,b_1,red,blue,Y,no_color_change,figure_change,not_first,no_update,correct,22,1029,3036,1775,0,-2.81162236961919,17.6851128921749,700,-27.1728812942025,175,1.59271407857268,-16.9462319576247,0,NaN
306346313,162,b_1,blue,blue,X,color_change,figure_change,not_first,update,correct,21,1028,3034,1150,0,7.86790040086021,24.2073538851412,625,-16.5072266990558,100,13.8146042078789,5.37760904476806,0,NaN
306346313,164,b_1,blue,blue,X,color_change,figure_change,not_first,update,correct,28,1038,3044,1100,0,11.0006433048585,27.2166848230012,800,-18.4056871748404,1075,-9.03829120045611,13.5314749391678,0,NaN
306346313,166,b_1,blue,blue,X,color_change,no_figure_change,not_first,update,correct,56,1063,3068,2150,0,-6.25989060399545,17.7828289574111,1150,-27.8564341321936,1575,11.1349889329874,-27.8564341321936,0,NaN
306346313,168,b_1,red,blue,X,no_color_change,no_figure_change,not_first,no_update,correct,20,1027,3032,2075,0,5.20839561791704,29.2227316291102,1175,-21.5079567782445,1225,7.88546689965078,4.83703334690441,0,NaN
306346313,169,b_1,red,blue,X,no_color_change,no_figure_change,not_first,no_update,correct,9,1016,3022,1775,0,13.4965280018789,30.1634625269867,550,-19.5733261632305,200,21.8403439540481,13.3532620013549,1,200
306346313,170,b_1,red,blue,X,no_color_change,no_figure_change,not_first,no_update,correct,20,1027,3033,1225,0,1.72361494941054,19.6017297883937,750,-17.6429848131814,650,3.01903766835568,10.3715903438395,0,NaN
306346313,171,b_1,blue,blue,Y,color_change,figure_change,not_first,update,correct,6,1014,3019,1175,0,-3.15205505627338,12.118877244603,475,-18.3530189531316,825,2.68095328991168,-3.76432192855447,1,125
306346313,177,b_2,blue,blue,X,color_change,no_figure_change,not_first,update,correct,33,1041,3047,600,0,9.96710307629864,27.3790841783357,325,-4.91434291002736,75,15.8302148720425,4.34044543698697,0,NaN
306346313,179,b_2,blue,blue,Y,color_change,no_figure_change,not_first,update,correct,156,1163,3170,1400,0,-0.654121439264854,10.0414090763651,475,-15.8213967914389,275,-8.14471923338324,-1.79672884645477,0,NaN
306346313,183,b_3,red,blue,X,no_color_change,no_figure_change,not_first,no_update,correct,21,1029,3034,1375,0,20.9046889693954,49.6717555668181,1000,-12.1297802911076,900,8.19558922469109,41.9447482372607,0,NaN
306346313,184,b_3,red,blue,X,no_color_change,no_figure_change,not_first,no_update,correct,21,1029,3035,875,0,-4.43783027527024,12.270648496385,425,-24.2365561651836,200,7.46241785939328,2.58458863281585,0,NaN
306346313,185,b_3,blue,blue,X,color_change,no_figure_change,not_first,update,correct,138,1148,0,450,0,-9.0845332556931,8.15884551928661,175,-23.9882630578702,125,-17.1672618674686,-20.1735480233068,0,NaN
