participant_id,trial_id,block,border_color,dominant,figure,is_color_change,is_figure_change,is_first,is_update,is_correct,event_fixation,event_stimulus_on,event_stimulus_off,event_Trial_Offset,event_Trial_Onset,trial_mean,trial_max,trial_max_latency,trial_min,trial_min_latency,first_bin,last_bin,valid_blinks,blinks_mean
206993057,2,b_0,blue,blue,Y,no_color_change,figure_change,not_first,update,correct,109,1117,3122,2700,0,-1.45085090607548,-0.418251747144667,300,-2.45822307737838,2175,-1.03182694758913,-2.34277818103511,1,125
206993057,3,b_0,blue,blue,X,no_color_change,figure_change,not_first,update,correct,24,1031,3036,2550,0,-1.52413232125044,-0.61284675757944,925,-2.40656973689503,625,-1.13819415290686,-1.53296983049018,0,NaN
206993057,4,b_0,blue,blue,Y,no_color_change,figure_change,not_first,update,correct,16,1023,3027,2850,0,-1.19636209515831,-0.327986256101993,1975,-2.41195562047885,1725,-1.04286241528831,-2.02909441236655,0,NaN
206993057,5,b_0,blue,blue,X,no_color_change,figure_change,not_first,update,correct,6,1013,3018,2600,0,-1.05470723658175,0.435826329000163,1750,-2.14253358648498,900,-1.14863829214134,-1.47591462457262,1,125
206993057,6,b_0,blue,blue,Y,no_color_change,figure_change,not_first,update,correct,16,1022,3027,2775,0,-0.706505758458415,0.926900646151054,1675,-2.42602763975347,1225,-1.93863713911911,-1.61056171416797,0,NaN
206993057,8,b_1,blue,blue,Y,no_color_change,figure_change,not_first,update,correct,22,1030,3035,2525,0,-1.5487159485939,0.462691819517645,525,-2.50741521290057,2150,-1.73076920192956,-1.08232959484388,1,150
206993057,9,b_1,red,blue,X,color_change,figure_change,not_first,no_update,correct,12,1018,3023,2400,0,-1.49550337883119,-0.183933847547968,1500,-2.52293358963613,900,-2.13196159244731,-1.45881404464776,1,175
206993057,10,b_1,red,blue,Y,no_color_change,figure_change,not_first,no_update,correct,22,1029,3034,2550,0,-1.12659514336924,1.07665857529684,2025,-2.42757787924199,1075,-1.09578631287822,-0.648646102468885,0,NaN
206993057,11,b_1,red,blue,X,no_color_change,figure_change,not_first,no_update,correct,9,1017,3021,2675,0,-1.21107529537414,0.594582039919497,1200,-2.55255594934711,1825,-1.93527295961052,-0.15016419765895,0,NaN
206993057,12,b_1,red,blue,X,no_color_change,no_figure_change,not_first,no_update,correct,22,1029,3035,2500,0,-1.73765792428651,-0.338869896222401,950,-2.57216567978432,325,-1.35507585372035,-1.50588059406714,0,NaN
206993057,13,b_1,red,blue,X,no_color_change,no_figure_change,not_first,no_update,correct,69,1075,3081,2575,0,-1.36506768842741,-0.242699111458008,25,-2.49178496321223,100,-0.242699111458008,-1.62338714911162,1,125
206993057,14,b_1,red,blue,X,no_color_change,no_figure_change,not_first,no_update,correct,41,1048,3053,2550,0,-1.35220039193243,0.585152748185224,1825,-2.51264926890561,1025,-1.07167769155423,-0.991416838860129,0,NaN
206993057,16,b_2,red,blue,X,color_change,figure_change,not_first,no_update,correct,387,1395,3400,1900,0,-0.752316265388352,0.877029281986985,1100,-2.12213275445311,125,-2.12047863293701,-1.18507691104667,0,NaN
206993057,17,b_2,blue,blue,Y,color_change,figure_change,not_first,update,correct,21,1027,3033,2475,0,-0.910903727186461,0.794331197107326,1475,-2.4362480330824,2100,-0.0353905390323637,-1.69223696062222,1,125
206993057,18,b_2,blue,blue,X,no_color_change,figure_change,not_first,update,correct,236,1243,3248,2475,0,-0.924431818711775,0.874512140549446,1550,-2.45912605192581,550,-0.871185378322942,-1.68153711178138,0,NaN
206993057,19,b_2,blue,blue,Y,no_color_change,figure_change,not_first,update,correct,22,1030,3039,2725,0,-1.18001511396324,0.74340503081705,2000,-2.4378861727481,1575,-1.69803837231636,-0.424508641575122,0,NaN
206993057,20,b_2,red,blue,X,color_change,figure_change,not_first,no_update,correct,148,1154,3159,3100,0,-1.01146897597424,0.701260891319967,1475,-2.45569794501564,1600,-0.896380765473929,0.509894214665402,0,NaN
206993057,21,b_2,blue,blue,X,color_change,no_figure_change,not_first,update,correct,21,1028,3034,2800,0,-0.750242997860989,0.918086655657068,1700,-2.08822725883572,575,-0.773120744286496,-0.886208317696191,0,NaN
206993057,22,b_2,blue,blue,X,no_color_change,no_figure_change,not_first,update,correct,22,1029,3033,2750,0,-0.871983562783114,0.653802786565855,1850,-2.32067528193596,1550,-0.543030044119822,0.473567468712853,0,NaN
206993057,23,b_2,blue,blue,X,no_color_change,no_figure_change,not_first,update,correct,18,1024,3029,2450,0,-0.323981894517845,1.12323767827911,1100,-2.54137664499435,1700,0.44977049347161,0.0108529450915698,0,NaN
206993057,24,b_2,blue,blue,X,no_color_change,no_figure_change,not_first,update,correct,5,1011,3015,2275,0,-0.133309701907809,0.965624669663165,1025,-2.46109181952465,1850,0.949882547022047,-0.768350161942969,0,NaN
206993057,25,b_2,blue,blue,Y,no_color_change,figure_change,not_first,update,correct,20,1028,3033,2500,0,-0.805560994801575,0.94675010434422,775,-2.40343729421721,1150,-0.956824123675662,-2.40191901842949,0,NaN
206993057,27,b_3,blue,blue,Y,no_color_change,no_figure_change,not_first,update,correct,26,1032,3039,3050,0,-1.08543188994028,0.694340750098033,1850,-2.49375073081107,1575,-1.38727928227045,-2.44864195806533,0,NaN
206993057,28,b_3,blue,blue,Y,no_color_change,no_figure_change,not_first,update,correct,12,1018,3023,2625,0,-1.02534794176054,0.989541508782386,1125,-2.59092837215048,600,-1.12916440743251,-0.987733022343603,0,NaN
206993057,29,b_3,red,blue,X,color_change,figure_change,not_first,no_update,correct,22,1029,3034,2275,0,-0.698079418642526,1.21045063589594,1675,-2.3597748789324,700,-0.548423918628835,0.882511056673182,0,NaN
206993057,31,b_0,red,blue,Y,color_change,no_figure_change,not_first,no_update,correct,179,1185,3189,1375,0,0.234107045527022,1.26676268577003,1225,-2.39044404984439,1350,-2.18234437582409,-2.21800787498516,0,NaN
206993057,32,b_0,red,blue,Y,no_color_change,no_figure_change,not_first,no_update,correct,128,1136,3141,2675,0,0.734161936720499,1.19923137691719,800,-0.392361149501407,900,0.790647380590801,0.855293965446965,1,150
206993057,33,b_0,blue,blue,X,color_change,figure_change,not_first,update,correct,21,1028,3034,2325,0,-0.211499633691939,1.50959092070317,500,-2.47434876442903,1350,0.956914561196759,0.5929279184034,0,NaN
206993057,34,b_0,red,blue,X,color_change,no_figure_change,not_first,no_update,correct,34,1042,3047,2375,0,0.601081885717778,1.29092724357041,1050,-1.10293819093091,825,0.488806163066463,-0.144402740590805,2,137.5
206993057,36,b_1,red,blue,Y,color_change,no_figure_change,not_first,no_update,correct,53,1059,3064,1650,0,-0.355918475499709,1.11851504148677,1075,-2.45250157493623,300,-2.38248508834664,-0.460483786818935,0,NaN
206993057,37,b_1,blue,blue,Y,color_change,no_figure_change,not_first,update,correct,8,1016,3021,1975,0,-0.157637533436716,1.25335391328689,1925,-2.44058710546521,400,-1.95047169933814,0.716427667346789,0,NaN
206993057,38,b_1,red,blue,Y,color_change,no_figure_change,not_first,no_update,correct,38,1044,3049,2175,0,0.287855611607406,1.4247832315711,2175,-2.2887755085434,600,0.637525271936435,1.4247832315711,1,225
206993057,39,b_1,blue,blue,X,color_change,figure_change,not_first,update,correct,30,1039,3045,2500,0,-0.537756759936533,1.05658537119811,1000,-2.4368233796967,1625,0.659348488653639,-1.57425894099102,0,NaN
206993057,40,b_1,blue,blue,X,no_color_change,no_figure_change,not_first,update,correct,18,1025,3031,2100,0,-0.799236215965931,1.01003024099143,1475,-2.50119028217091,1625,-2.4165823661688,-2.15535902142863,0,NaN
206993057,41,b_1,blue,blue,Y,no_color_change,figure_change,not_first,update,correct,5,1012,0,225,0,-2.16376458685691,-2.04251916670009,200,-2.25943283121437,50,-2.23229564924014,-2.16977465048679,0,NaN
206993057,42,b_1,red,blue,X,color_change,figure_change,not_first,no_update,correct,1790,2798,4803,625,0,-0.644293285694738,0.833974177017269,100,-2.16196751656782,225,-2.15082017591586,-0.166457694138767,0,NaN
206993057,43,b_1,blue,blue,Y,color_change,figure_change,not_first,update,correct,170,1178,3182,1050,0,0.180936919405179,0.829962732567602,750,-2.37252839554927,100,-2.37252839554927,0.71587629350809,0,NaN
206993057,44,b_1,red,blue,Y,color_change,no_figure_change,not_first,no_update,correct,146,1154,3159,1450,0,0.186749948321914,0.953646272790558,600,-1.14508233042799,300,0.738610475697928,0.0775611886489564,2,175
206993057,45,b_1,red,blue,X,no_color_change,figure_change,not_first,no_update,correct,375,1382,3388,1275,0,0.152360165627458,1.133657844738,825,-1.85012166069491,550,-0.925875270381729,0.537263133470392,0,NaN
206993057,46,b_1,red,blue,Y,no_color_change,figure_change,not_first,no_update,correct,13,1020,3027,2175,0,0.354462636778945,1.41456283824217,1675,-1.03615003812154,1025,0.614735153270208,-0.12247564184602,1,125
206993057,47,b_1,red,blue,X,no_color_change,figure_change,not_first,no_update,correct,20,1027,3032,2150,0,0.276525283894896,1.38390964918058,725,-1.58053980819707,1650,-0.28911839593631,1.02836941432208,0,NaN
206993057,48,b_1,blue,blue,X,color_change,no_figure_change,not_first,update,correct,22,1029,3033,1025,0,0.645549914941298,1.4815987097327,475,-1.00433816490616,950,0.563417431645204,1.0544438032449,1,250
206993057,49,b_1,red,blue,X,color_change,no_figure_change,not_first,no_update,correct,22,1031,3035,2250,0,1.15249254623692,1.94837262335484,800,0.208124915467852,2200,1.57273521162201,0.208124915467852,1,300
206993057,51,b_2,blue,blue,Y,no_color_change,no_figure_change,not_first,update,correct,24,1032,3036,275,0,-0.335656212471723,0.886586428524436,50,-2.40800011250557,275,-0.545027775419456,-1.68346292475423,0,NaN
206993057,52,b_2,blue,blue,X,no_color_change,figure_change,not_first,update,correct,16,1025,3029,2500,0,0.460928640033781,1.18744476224935,1600,-1.49158482888696,1125,0.619649572267308,-0.779721248500487,1,225
206993057,53,b_2,blue,blue,Y,no_color_change,figure_change,not_first,update,correct,5,1013,3019,950,0,-0.545739787344198,1.30597415571925,850,-2.60034168203436,525,-0.882596419506452,1.00163976953297,0,NaN
206993057,54,b_2,blue,blue,Y,no_color_change,no_figure_change,not_first,update,correct,14,1020,3025,2650,0,0.869719083728799,1.27287574354691,1125,0.298262551707349,1375,0.816314232328501,0.804943145770983,0,NaN
206993057,55,b_2,red,blue,Y,color_change,no_figure_change,not_first,no_update,correct,38,1045,3050,2550,0,0.812954184491469,1.43354927651389,900,-0.151778364549055,1000,0.188954685916562,0.757285267886909,2,137.5
206993057,56,b_2,blue,blue,Y,color_change,no_figure_change,not_first,update,correct,14,1022,3027,2475,0,0.641568226057054,1.27141340423558,2150,-0.72699712404054,775,-0.601307861592752,0.255295346914816,0,NaN
206993057,57,b_2,blue,blue,X,no_color_change,figure_change,not_first,update,correct,21,1028,3033,2275,0,0.423388817152513,1.10699212735048,1950,-0.897307712796959,625,0.0988969589290502,0.870908233284906,1,175
206993057,58,b_2,blue,blue,X,no_color_change,no_figure_change,not_first,update,correct,12,1019,3025,2050,0,0.667953740589391,1.19834438422016,750,-0.817590243016354,1800,0.835244734123835,0.42453515169463,1,225
206993057,59,b_2,red,blue,Y,color_change,figure_change,not_first,no_update,correct,24,1030,3035,2300,0,0.40475570490292,1.13659850521106,1150,-1.6710370360705,1600,1.05179880700419,0.819151010773982,1,225
206993057,60,b_2,blue,blue,Y,color_change,no_figure_change,not_first,update,correct,11,1017,3023,2175,0,0.161138596774457,1.16200165641721,1725,-1.10057287707214,100,-0.0414716331084503,0.700174125492965,0,NaN
206993057,61,b_2,blue,blue,X,no_color_change,figure_change,not_first,update,correct,21,1029,3034,2575,0,-0.139954156210392,1.08727851488569,1600,-2.10382554482326,575,0.96194085314664,0.793180503878737,0,NaN
206993057,62,b_2,red,blue,Y,color_change,figure_change,not_first,no_update,correct,9,1016,3022,2150,0,0.672177735360461,1.23807526430728,275,-0.276037251386305,875,0.884125223563286,0.440293256186145,2,237.5
206993057,64,b_3,red,blue,X,color_change,no_figure_change,not_first,no_update,correct,416,1423,3428,1975,0,0.392362088660281,1.31088058379115,500,-1.50385089906671,25,-1.50385089906671,-0.0824970430777392,0,NaN
206993057,65,b_3,blue,blue,X,color_change,no_figure_change,not_first,update,correct,6,1013,3018,2450,0,0.667365611373992,1.07423732496168,450,-0.261094221265041,1100,0.158701043114901,0.694476595826408,1,150
206993057,66,b_3,red,blue,Y,color_change,figure_change,not_first,no_update,correct,16,1023,3029,2750,0,0.717769597944334,1.11959381638858,1625,-0.532130422149018,2050,0.852449196076286,0.908801200576368,1,125
206993057,67,b_3,red,blue,X,no_color_change,figure_change,not_first,no_update,correct,21,1029,3034,2175,0,0.652169055686471,1.03934095461967,650,-0.12209207743649,1300,0.769862984149406,0.47074667211777,1,125
206993057,68,b_3,red,blue,Y,no_color_change,figure_change,not_first,no_update,correct,22,1029,3034,2300,0,0.722035253701878,1.07157634687057,1525,-0.197390565582304,1150,0.67021614692365,0.473631396114442,0,NaN
206993057,69,b_3,blue,blue,X,color_change,figure_change,not_first,update,correct,22,1030,3035,2475,0,0.685793138911659,1.04511040261301,2075,-0.488811616647749,1425,0.359600893531319,0.448451990813852,2,212.5
206993057,70,b_3,red,blue,Y,color_change,figure_change,not_first,no_update,correct,20,1027,3032,1925,0,0.719263459898901,1.14631547025248,850,-0.343121068428023,1075,0.693741430708143,0.497748008363626,2,137.5
206993057,71,b_3,red,blue,Y,no_color_change,no_figure_change,not_first,no_update,correct,130,1138,3142,2250,0,0.627601496302518,1.05075998672838,100,-0.477624321369797,725,0.571544202572115,0.866816879583256,1,125
206993057,72,b_3,blue,blue,Y,color_change,no_figure_change,not_first,update,correct,31,1038,3043,2400,0,0.712391478270799,1.15160546273391,975,-0.104919579184834,475,1.11895454237269,0.597043244880648,0,NaN
206993057,73,b_3,blue,blue,X,no_color_change,figure_change,not_first,update,correct,22,1029,3034,1625,0,0.562716074287393,1.20469716975299,725,-0.944014670582408,975,0.779012593501731,0.729069311010876,0,NaN
206993057,74,b_3,red,blue,Y,color_change,figure_change,not_first,no_update,correct,142,1150,3155,2000,0,0.641979813188359,1.28065890469029,125,-0.833156565303104,850,-0.265353384395861,-0.0576053110842965,1,125
206993057,75,b_3,red,blue,X,no_color_change,figure_change,not_first,no_update,correct,20,1028,3033,2300,0,0.241128162985555,1.06849184974393,1750,-0.967947491552026,1975,-0.548655655459592,-0.078685371758037,0,NaN
206993057,76,b_3,blue,blue,X,color_change,no_figure_change,not_first,update,correct,21,1028,3035,1875,0,0.323527406634729,0.981990084469768,1800,-1.03642172957829,1075,0.954173673853661,0.45976714089498,0,NaN
206993057,77,b_3,red,blue,Y,color_change,figure_change,not_first,no_update,correct,18,1025,3031,2250,0,0.526675339194266,1.17803145236548,675,-0.792802393050492,1825,0.848078159992686,0.142652601674505,0,NaN
206993057,78,b_3,blue,blue,Y,color_change,no_figure_change,not_first,update,correct,21,1029,3035,2575,0,0.605145543599138,1.0992409299079,2025,-0.870761859287419,75,-0.160656282444629,0.761768176923288,1,150
206993057,79,b_3,blue,blue,X,no_color_change,figure_change,not_first,update,correct,127,1135,3141,2900,0,0.777302898733117,1.12129588345586,2125,-0.320179122183023,750,0.956986479523546,0.817472916482289,2,187.5
206993057,80,b_3,blue,blue,Y,no_color_change,figure_change,not_first,update,correct,4,1012,3016,2800,0,0.00221911363842324,1.08222825016022,1625,-1.25081026172984,2175,0.25063663752407,-0.168415470812409,0,NaN
206993057,81,b_3,blue,blue,X,no_color_change,figure_change,not_first,update,correct,16,1023,3028,2250,0,0.497859972122374,1.25724549385857,825,-0.838246784654572,675,0.601901727401357,-0.102961802511192,0,NaN
206993057,82,b_3,red,blue,Y,color_change,figure_change,not_first,no_update,correct,186,1194,3198,2275,0,0.467686601796571,1.16777909533575,1325,-0.730353312623926,1525,0.86389220096059,0.838313249400074,2,125
206993057,83,b_3,blue,blue,Y,color_change,no_figure_change,not_first,update,correct,185,1191,3197,850,0,0.603263574774587,1.26752981458909,200,-1.08452709927348,75,-0.0355823212371277,1.0085838835305,0,NaN
206993057,84,b_3,red,blue,X,color_change,figure_change,not_first,no_update,correct,143,1151,3156,2125,0,0.77705063553002,1.18014904754309,875,-0.535534556283594,2125,0.939574253515934,0.582323960664942,1,175
206993057,86,b_0,blue,red,X,color_change,figure_change,not_first,no_update,correct,47,551,1554,3325,0,0.955563640808366,1.26506860962794,600,0.669912491766105,100,0.863652473204634,0.77989159527357,0,NaN
206993057,87,b_0,red,red,X,color_change,no_figure_change,not_first,update,correct,6,509,1512,3200,0,0.864263279549498,1.20687869233219,225,0.645859806918509,1850,0.784542313739118,0.790175916004088,3,175
206993057,88,b_0,blue,red,X,color_change,no_figure_change,not_first,no_update,correct,11,513,1516,3400,0,0.937284308610744,1.13873208223907,1400,0.758651716095858,1575,0.778349346710252,0.968357566081064,0,NaN
206993057,89,b_0,red,red,X,color_change,no_figure_change,not_first,update,correct,4,508,1510,2350,0,0.766192243692296,1.08007070035661,850,0.234486977697826,2000,0.875127441789733,0.613049068053316,1,250
206993057,90,b_0,blue,red,X,color_change,no_figure_change,not_first,no_update,correct,12,516,1519,3025,0,0.787936005187356,1.21645981164524,1325,0.0661581383906442,400,0.781353934584902,0.782320836533925,2,212.5
206993057,91,b_0,blue,red,Y,no_color_change,figure_change,not_first,no_update,correct,3,506,1510,2900,0,0.778085328357812,1.28200937104884,1500,-0.117377431569353,1050,1.06752494779491,0.654513978908525,1,250
206993057,92,b_0,red,red,X,color_change,figure_change,not_first,update,correct,8,511,1513,3075,0,0.791610559495129,1.20724627489133,175,-0.142692682598318,1300,0.739049976583847,0.717498451323394,2,212.5
206993057,93,b_0,red,red,Y,no_color_change,figure_change,not_first,update,correct,12,515,1517,2275,0,0.788452146310407,1.22911743715972,575,-0.118935661983068,1850,0.91392338362863,1.07275900379995,1,225
206993057,94,b_0,blue,red,Y,color_change,no_figure_change,not_first,no_update,correct,80,584,1587,3050,0,0.781622181677343,1.17127912057271,1625,0.232601119350971,1550,0.418206338937389,0.981071128071937,1,300
206993057,96,b_1,red,red,X,no_color_change,figure_change,not_first,update,correct,10,513,1516,1425,0,0.482907598544912,1.17325287909675,1325,-0.970584496867543,725,1.14604377879573,1.08475338252295,0,NaN
206993057,97,b_1,blue,red,Y,color_change,figure_change,not_first,no_update,correct,11,515,1518,2000,0,0.792405284247914,1.2423584002137,1300,0.346527739906513,1925,0.918749902448547,0.761041002730221,1,275
206993057,98,b_1,red,red,X,color_change,figure_change,not_first,update,correct,24,528,1531,1600,0,0.725879433558184,1.30223440272634,575,-0.254973172562961,75,-0.150451870966098,1.0888687090002,1,125
206993057,99,b_1,blue,red,Y,color_change,figure_change,not_first,no_update,correct,13,516,1519,1125,0,0.660685991955759,1.31077670176357,275,-0.260375037997172,525,0.968213729427491,0.157254685653966,0,NaN
206993057,100,b_1,blue,red,Y,no_color_change,no_figure_change,not_first,no_update,correct,59,563,1565,1500,0,0.798329017684522,1.23926591216186,425,-0.00659923554203498,950,0.97209731907398,0.767146069581903,1,150
206993057,101,b_1,red,red,X,color_change,figure_change,not_first,update,correct,2,505,0,1825,0,0.941770827495338,1.335748343009,550,0.670439892829209,1625,1.10540193323597,0.942083404028275,0,NaN
206993057,102,b_1,blue,red,Y,color_change,figure_change,not_first,no_update,correct,648,1153,2157,1625,0,0.776335996784093,1.27373876346835,825,-0.0456828506880793,1425,0.696450354350447,0.628767217918838,0,NaN
206993057,103,b_1,blue,red,Y,no_color_change,no_figure_change,not_first,no_update,correct,2,506,0,1875,0,0.806819201916261,1.06941080614176,275,0.465952116998648,975,0.977674984862558,0.926021644379216,2,125
206993057,104,b_1,blue,red,X,no_color_change,figure_change,not_first,no_update,correct,570,1074,2076,2425,0,-0.576358286197588,0.922873219850992,1025,-2.00227686740025,1500,0.56687750225617,-0.98649442893783,0,NaN
206993057,105,b_1,blue,red,X,no_color_change,no_figure_change,not_first,no_update,correct,11,515,1517,2775,0,-0.246280862066316,0.918182546759451,1425,-1.65734059028021,725,0.242685666951525,0.572854714304675,1,125
206993057,106,b_1,blue,red,Y,no_color_change,figure_change,not_first,no_update,correct,7,510,1513,1525,0,0.451506650856883,1.13971496603849,950,-0.62568018344829,450,0.849908081863151,0.739729205225723,0,NaN
206993057,108,b_2,red,red,Y,no_color_change,figure_change,not_first,update,correct,61,566,1568,1825,0,-0.0808613870779792,1.08855706291746,1850,-1.11254328301955,25,-1.11254328301955,1.08855706291746,0,NaN
206993057,109,b_2,blue,red,Y,color_change,no_figure_change,not_first,no_update,correct,7,510,1513,2175,0,0.28065551245438,1.41298862597806,275,-1.06545276082457,1425,-0.719118071794783,-0.867717316786777,0,NaN
206993057,110,b_2,blue,red,X,no_color_change,figure_change,not_first,no_update,correct,11,514,1517,2275,0,0.458369818656854,1.41644070566383,1875,-1.05920385731932,975,-0.0558792712414125,0.65126167235272,0,NaN
206993057,111,b_2,blue,red,X,no_color_change,no_figure_change,not_first,no_update,correct,61,564,1567,2225,0,0.347534233257655,1.17860679897977,50,-1.01822639290122,625,-0.36787695469309,0.320101750274951,0,NaN
206993057,113,b_3,blue,red,Y,color_change,no_figure_change,not_first,no_update,correct,9,513,1515,2275,0,0.128009624740716,1.04636497786918,1500,-1.13246465953951,1100,-0.751625155502431,-0.376243453375958,0,NaN
206993057,114,b_3,blue,red,X,no_color_change,figure_change,not_first,no_update,correct,102,607,1609,2500,0,0.306192001265438,1.0446389380263,1525,-1.03113173709686,1825,0.547954991386034,0.621303693783405,0,NaN
206993057,115,b_3,red,red,X,color_change,no_figure_change,not_first,update,correct,10,513,1516,2000,0,0.121528196298583,0.948052625151582,1050,-1.18029034685275,1975,0.339919244767322,0.0523658014979694,1,200
206993057,116,b_3,red,red,Y,no_color_change,figure_change,not_first,update,correct,5,509,1512,2500,0,-0.114719268463253,1.24056843296923,1300,-1.63295228657427,175,-0.0964412075491862,-0.404315573598419,0,NaN
206993057,117,b_3,blue,red,X,color_change,figure_change,not_first,no_update,correct,11,515,1518,2800,0,0.256961454818711,1.1669800028159,875,-1.18879269126399,2175,-0.814513736814917,-0.564621524006269,2,200
206993057,118,b_3,red,red,X,color_change,no_figure_change,not_first,update,correct,11,514,1517,1525,0,-0.000697292853463885,1.15699134631773,625,-2.16967875938441,1475,0.257788515576759,-1.80580398954383,1,125
207280074,2,b_0,red,red,Y,no_color_change,figure_change,not_first,update,correct,21,1031,3037,2200,0,0.188599510533804,1.60174846472329,1675,-1.18945037658521,475,0.444668366305415,0.483457186986987,0,NaN
207280074,3,b_0,red,red,Y,no_color_change,no_figure_change,not_first,update,correct,9,1015,3019,2100,0,-0.533679165674986,0.74763619204049,25,-2.28415709359845,1750,0.74763619204049,-0.302176056591309,0,NaN
207280074,4,b_0,red,red,Y,no_color_change,no_figure_change,not_first,update,correct,14,1020,0,1125,0,-0.261332510314877,0.354121211854297,900,-1.3131196721533,1125,0.110294365800384,-1.3131196721533,0,NaN
207280074,5,b_0,blue,red,Y,color_change,no_figure_change,not_first,no_update,correct,228,1235,3239,1875,0,-0.293242845005653,0.537729610985894,600,-1.59856867867108,1400,0.136831984888085,0.143336694529131,0,NaN
207280074,6,b_0,blue,red,X,no_color_change,figure_change,not_first,no_update,correct,15,1023,3027,1575,0,-0.296428931206831,1.88823503228811,1500,-3.6631555375001,1375,0.405121327935623,-2.13698304969554,0,NaN
207280074,7,b_0,red,red,X,color_change,no_figure_change,not_first,update,correct,44,1051,3057,1775,0,-0.074364896442956,1.03691619319349,1525,-1.68947498886925,175,-1.55387374126022,0.210419006839544,1,150
207280074,8,b_0,red,red,X,no_color_change,no_figure_change,not_first,update,correct,17,1026,3032,3050,0,-0.0459938537768802,1.11768633008598,1150,-1.70184590904548,225,-0.660892835507615,0.112329581700343,0,NaN
207280074,9,b_0,red,red,X,no_color_change,no_figure_change,not_first,update,correct,23,1029,3034,2875,0,0.082808575540467,1.52720369411303,1350,-1.71425673541581,2325,0.724610318035072,-0.870320542232809,0,NaN
207280074,10,b_0,blue,red,X,color_change,no_figure_change,not_first,no_update,correct,11,1018,3024,2850,0,0.520847694626704,1.40964004624481,600,-0.762374287146748,2475,0.125019751429499,-0.710416422406618,1,275
207280074,11,b_0,red,red,X,color_change,no_figure_change,not_first,update,correct,23,1029,3034,2150,0,0.152978680663478,1.13584364840914,1750,-1.14052538259796,2150,-0.265183014644995,-1.14052538259796,0,NaN
207280074,12,b_0,blue,red,X,color_change,no_figure_change,not_first,no_update,correct,56,1062,3067,2400,0,-0.518199508962878,0.867035524838086,1700,-2.76247273628294,600,-0.79142599646381,-0.325960148284948,0,NaN
207280074,13,b_0,red,red,X,color_change,no_figure_change,not_first,update,correct,18,1024,3028,1600,0,0.670056708853003,1.8943805861821,1575,-0.422852387600644,100,-0.301577463679557,0.456161350211066,0,NaN
207280074,15,b_1,red,red,Y,no_color_change,figure_change,not_first,update,correct,9,1017,3022,2800,0,0.580922479250201,2.23645648215168,2400,-1.12484224831004,825,0.209820413927792,2.06039035370817,0,NaN
207280074,16,b_1,red,red,X,no_color_change,figure_change,not_first,update,correct,22,1028,3034,2975,0,1.44295493427937,2.55223419619827,2175,-0.23680971062792,1025,1.22970301697196,1.2008907448196,1,250
207280074,17,b_1,blue,red,X,color_change,no_figure_change,not_first,no_update,correct,9,1016,3021,2725,0,1.34645058317049,2.34923138672588,875,0.128292059347081,2100,1.75131688027322,1.04298193469925,0,NaN
207280074,18,b_1,red,red,Y,color_change,figure_change,not_first,update,correct,62,1069,3074,2850,0,1.80942249374802,3.16982245635054,1850,0.430461761199819,375,1.09434120652763,1.63930019338724,0,NaN
207280074,20,b_2,blue,red,X,color_change,figure_change,not_first,no_update,correct,17,1025,3030,2600,0,0.489958704132503,1.69165712006854,500,-0.852203130103762,1950,0.132123053982297,0.493673172680899,0,NaN
207280074,21,b_2,red,red,X,color_change,no_figure_change,not_first,update,correct,130,1136,3141,2500,0,0.219716351944886,1.61759122378768,1650,-1.35857282725239,1000,0.775770058892865,-0.142351749153351,0,NaN
207280074,22,b_2,blue,red,Y,color_change,figure_change,not_first,no_update,correct,122,1133,3138,3050,0,-0.237646743049521,1.02310865002906,2275,-1.40745791504552,825,-0.23086368770451,0.459713001487465,0,NaN
207280074,23,b_2,blue,red,X,no_color_change,figure_change,not_first,no_update,correct,6,1013,3018,2325,0,-0.652962659448761,0.561034828350131,2225,-2.16004882989507,1750,-0.335497728678874,-1.93773142247014,0,NaN
207280074,24,b_2,blue,red,X,no_color_change,no_figure_change,not_first,no_update,correct,38,1045,3050,1900,0,0.612331390444896,3.35091676525277,1600,-1.13785166759213,275,-0.655944467437126,2.00547943060339,0,NaN
207280074,25,b_2,red,red,X,color_change,no_figure_change,not_first,update,correct,3,1010,3015,2575,0,0.926738383732413,2.11877311570111,125,-1.12153003419834,2375,1.90822803554065,-0.782526915175754,1,150
207280074,27,b_3,blue,red,Y,color_change,no_figure_change,not_first,no_update,correct,12,1021,3026,2600,0,0.178594216093303,1.60613814607614,325,-1.63763684271147,2250,0.357313707383645,-0.914496699120155,1,125
207280074,28,b_3,red,red,X,color_change,figure_change,not_first,update,correct,68,1076,3081,2200,0,-0.192602615230529,1.34770563297546,2050,-3.25212173809661,75,-1.57494421175391,0.511112179509959,1,150
207280074,29,b_3,red,red,X,no_color_change,no_figure_change,not_first,update,correct,5,1012,3018,2975,0,-0.69643129667837,0.374912338989173,800,-1.83992134068975,1325,-0.212187588857827,-0.950292555242963,0,NaN
207280074,30,b_3,red,red,Y,no_color_change,figure_change,not_first,update,correct,67,1073,3079,2850,0,0.160329550107965,1.73922530345582,1875,-1.52174925499616,925,0.103909374741689,-0.143429216394506,0,NaN
207280074,32,b_0,blue,blue,Y,no_color_change,figure_change,not_first,update,correct,22,1029,3035,2550,0,0.992931186975962,1.91305668502879,1325,-0.804555134328251,2500,1.23560913370125,-0.804555134328251,0,NaN
207280074,33,b_0,blue,blue,X,no_color_change,figure_change,not_first,update,correct,9,1015,3021,2975,0,-0.122591798074455,1.28980174531192,1925,-1.35577939366421,175,-0.964938128483845,-0.0656919502548953,0,NaN
207280074,34,b_0,red,blue,Y,color_change,figure_change,not_first,no_update,correct,21,1027,3032,3150,0,0.342634612939705,1.1712803487849,1900,-0.535068605457207,2500,0.0471627667075379,-0.535068605457207,0,NaN
207280074,35,b_0,blue,blue,X,color_change,figure_change,not_first,update,correct,6,1013,3019,2750,0,-0.278666918575136,0.831479105879978,1725,-1.31699057298264,2500,-0.800005828198931,-1.31699057298264,0,NaN
207280074,36,b_0,red,blue,X,color_change,no_figure_change,not_first,no_update,correct,14,1020,3026,2800,0,-0.784085252056016,0.155069115599482,1375,-2.85812788358101,2500,-0.386218501401382,-2.85812788358101,1,150
207280074,37,b_0,blue,blue,X,color_change,no_figure_change,not_first,update,correct,6,1012,3017,2775,0,-0.465250324478143,1.60725551951141,1725,-2.60755689072135,2450,-1.29408441755957,-2.10414025193737,0,NaN
207280074,38,b_0,blue,blue,X,no_color_change,no_figure_change,not_first,update,correct,15,1022,3028,2775,0,-0.185025637363169,1.21733209679574,1825,-1.82966544880172,325,-0.642416267631516,-0.802559824622409,1,150
207280074,39,b_0,blue,blue,Y,no_color_change,figure_change,not_first,update,correct,4,1011,3015,3075,0,0.733961935564413,1.58462870744716,25,-0.0956615020366447,2075,1.58462870744716,0.462945403210929,0,NaN
207280074,40,b_0,red,blue,X,color_change,figure_change,not_first,no_update,correct,16,1022,3027,2700,0,-0.132560365364843,0.958101459812722,1575,-1.26934257720713,2425,-0.256563276715757,-1.19519686853803,1,125
207280074,42,b_1,red,blue,Y,color_change,figure_change,not_first,no_update,correct,49,1059,3065,1475,0,0.684827833119991,2.40757424252471,225,-0.737193478659019,850,-0.0200392641852264,0.850115298532544,0,NaN
207280074,43,b_1,red,blue,X,no_color_change,figure_change,not_first,no_update,correct,10,1017,3023,3075,0,0.0289759178007276,1.07163458207514,100,-1.34089438325863,1825,1.06832236796344,0.30946618063755,0,NaN
207280074,44,b_1,red,blue,Y,no_color_change,figure_change,not_first,no_update,correct,22,1028,3034,3025,0,0.246644652672991,1.60075080987037,2450,-1.24176739707239,1425,-0.455256217223521,1.20140952534312,0,NaN
207280074,45,b_1,blue,blue,X,color_change,figure_change,not_first,update,correct,8,1016,3020,2450,0,0.400181511192445,2.19044464033496,1800,-1.18083063865597,2125,-0.971762087677825,0.024456142255054,0,NaN
207280074,46,b_1,red,blue,X,color_change,no_figure_change,not_first,no_update,correct,20,1027,3033,2850,0,-0.0777156865423003,0.938547424695469,1000,-1.3619249475582,375,0.381816110571387,0.215247656327682,0,NaN
207280074,47,b_1,red,blue,X,no_color_change,no_figure_change,not_first,no_update,correct,6,1012,3017,2900,0,-0.282518664431294,1.11010415320378,1050,-1.7976207749259,2300,0.361783201124731,-0.804914290075303,0,NaN
207280074,48,b_1,blue,blue,Y,color_change,figure_change,not_first,update,correct,15,1022,3027,3125,0,0.23225527719834,1.60358414965266,2025,-0.851684349580243,1075,0.101475096900562,0.393867781194673,0,NaN
207280074,49,b_1,red,blue,X,color_change,figure_change,not_first,no_update,correct,5,1012,3016,3025,0,0.188673722603335,1.45030445804987,1125,-2.35830280226755,2475,0.970871441930112,-2.29696698190996,0,NaN
207280074,51,b_2,blue,blue,X,no_color_change,no_figure_change,not_first,update,correct,113,1120,3126,2675,0,-1.04565439201428,1.13612299176796,950,-4.02670096590454,2275,0.456161350211066,-3.62033619121272,0,NaN
207280074,52,b_2,blue,blue,X,no_color_change,no_figure_change,not_first,update,correct,9,1017,3022,2225,0,-1.79880092214967,0.768906193504768,1700,-3.74484351685727,1850,-2.51904495217019,-0.805034008657653,0,NaN
207280074,53,b_2,red,blue,Y,color_change,figure_change,not_first,no_update,correct,18,1027,3032,3000,0,-0.0423178947058072,0.977296339182924,1300,-1.50271400040243,2250,-0.5144371030988,-0.879518919976741,0,NaN
207280074,54,b_2,blue,blue,Y,color_change,no_figure_change,not_first,update,correct,7,1013,3019,2850,0,0.654705241083803,2.09526836736629,1825,-0.159631131205945,300,0.676124292183107,0.244379178032978,0,NaN
207280074,55,b_2,blue,blue,Y,no_color_change,no_figure_change,not_first,update,correct,15,1022,3026,3150,0,0.693974332811571,2.00468130672106,2275,-0.419500267294829,600,0.379022676983208,0.991024069959118,0,NaN
207280074,56,b_2,red,blue,X,color_change,figure_change,not_first,no_update,correct,5,1012,3018,2850,0,-0.883027073501553,0.17861377012842,1650,-2.78777326335302,2325,-0.105677956759972,-1.46504255315613,0,NaN
207280074,58,b_3,blue,blue,Y,no_color_change,figure_change,not_first,update,correct,7,1014,3019,2500,0,0.110409295639441,1.6899012475274,100,-1.43746737302139,2375,1.10308066303921,-0.324762962461443,0,NaN
207280074,59,b_3,blue,blue,Y,no_color_change,no_figure_change,not_first,update,correct,17,1025,3031,2950,0,-0.434641874528583,0.957862022648021,975,-2.17585168276534,2025,-0.433946309565126,0.265529460914905,0,NaN
207280074,60,b_3,blue,blue,X,no_color_change,figure_change,not_first,update,correct,5,1011,3017,3150,0,0.906844347841284,1.78635451870781,1800,-0.298943654867845,2275,1.01013913694109,-0.250218191851179,2,175
207280074,61,b_3,blue,blue,Y,no_color_change,figure_change,not_first,update,correct,15,1023,3028,3000,0,0.573170701043004,1.57888221549434,350,-0.778735826734653,825,1.00650767327645,0.428346732911626,0,NaN
207280074,62,b_3,red,blue,X,color_change,figure_change,not_first,no_update,correct,3,1009,3014,2650,0,0.0979839035082496,1.07738107402797,550,-1.60886447675323,1675,-0.26853513495081,-0.0729947837782776,1,150
207280074,63,b_3,red,blue,Y,no_color_change,figure_change,not_first,no_update,correct,14,1021,3026,2500,0,-0.250381807247058,0.95079862628934,1575,-1.63420491001743,1750,-0.3978711100835,-0.584791723326794,1,125
207280074,64,b_3,blue,blue,X,color_change,figure_change,not_first,update,correct,23,1030,3035,2650,0,-0.480804960821006,0.676403635541925,1500,-1.91306939450593,675,-0.712571356888927,-0.0908328525485066,1,125
207280074,65,b_3,red,blue,X,color_change,no_figure_change,not_first,no_update,correct,116,1125,3129,3175,0,0.316873169327577,1.35959767882228,2150,-0.875628066050349,675,-0.0456989470023568,0.632027947683995,1,125
207280074,66,b_3,blue,blue,X,color_change,no_figure_change,not_first,update,correct,16,1023,3027,2650,0,-0.543221041853338,0.932282152219125,2400,-2.38603760717876,150,-0.92012347249063,-0.944346532319554,0,NaN
207280074,67,b_3,blue,blue,X,no_color_change,no_figure_change,not_first,update,correct,11,1018,3024,2525,0,-0.952310611479452,-0.0693633201136449,1475,-2.83035317247569,325,-0.353295891254986,-0.27080978801547,1,175
207280074,68,b_3,blue,blue,X,no_color_change,no_figure_change,not_first,update,correct,39,1045,3051,2175,0,-1.06084268949515,1.8822890093647,2150,-4.4620775437193,25,-4.4620775437193,-1.77275921599111,1,125
207280074,70,b_0,red,blue,X,color_change,figure_change,not_first,no_update,correct,7,1014,3020,1750,0,0.488690884345411,1.2731608623652,600,-0.992074340483298,1525,0.302322971890635,-0.871238384697496,1,200
207280074,71,b_0,red,blue,Y,no_color_change,figure_change,not_first,no_update,correct,65,1072,3077,1825,0,-0.522198857854526,0.738298142617149,1075,-2.06515190028522,1850,-0.466070795829185,-2.06515190028522,0,NaN
207280074,72,b_0,red,blue,Y,no_color_change,no_figure_change,not_first,no_update,correct,5,1011,3016,2350,0,-0.876134664683032,0.485851558633997,675,-3.00446389740748,1550,-1.45191341529168,-2.11643135972536,0,NaN
207280074,74,b_1,red,blue,Y,color_change,no_figure_change,not_first,no_update,correct,22,1028,3034,2300,0,-0.886319455969827,1.15890942860868,225,-2.30391065968629,1800,-0.0459383841670578,-0.86449423789175,0,NaN
207280074,75,b_1,blue,blue,X,color_change,figure_change,not_first,update,correct,30,1038,3044,2175,0,-0.397890375142729,0.786504825110296,1150,-1.60858513339441,1475,-0.758543292511531,-0.140356439447509,0,NaN
207280074,76,b_1,blue,blue,Y,no_color_change,figure_change,not_first,update,correct,20,1027,3032,2525,0,0.367799458949787,1.03711572416407,1400,-0.443523796153169,50,-0.357246604472553,0.22223124029813,0,NaN
207280074,78,b_2,red,blue,X,color_change,figure_change,not_first,no_update,correct,12,1019,3025,3050,0,-0.142320622321941,1.04118615596399,700,-2.23383538281711,2400,-0.0998516524189133,-1.63368612949391,0,NaN
207280074,79,b_2,red,blue,Y,no_color_change,figure_change,not_first,no_update,correct,22,1028,3034,2825,0,-0.14215301630665,1.21150579245468,525,-1.87491907293023,2450,0.177137240946097,-0.780970573605197,0,NaN
207280074,80,b_2,red,blue,X,no_color_change,figure_change,not_first,no_update,correct,10,1018,3024,2575,0,-0.58315437218218,0.462067466940359,1250,-1.72219806804507,1800,-0.00355800601497011,-0.945743249113643,1,150
207280074,81,b_2,red,blue,Y,no_color_change,figure_change,not_first,no_update,correct,21,1029,3033,1750,0,-1.40360981775568,0.459872626263932,350,-3.43996019380459,1700,-1.713977392057,-2.76618401233581,1,125
207280074,82,b_2,red,blue,Y,no_color_change,no_figure_change,not_first,no_update,correct,22,1029,3034,2525,0,-0.250877442177989,1.53466615241288,2000,-2.6735218295965,175,-2.64008043892658,0.0774914742363389,0,NaN
207280074,83,b_2,red,blue,Y,no_color_change,no_figure_change,not_first,no_update,correct,21,1028,3034,2750,0,-0.907119640075715,0.485492402886946,875,-2.59789959174508,1425,-0.0445416673729683,-0.118807094624414,0,NaN
207280074,84,b_2,blue,blue,Y,color_change,no_figure_change,not_first,update,correct,43,1050,0,375,0,-0.719315503694673,0.716948328764638,300,-2.12277644458994,175,0.0814421874539064,0.196491745092766,0,NaN
207280074,85,b_2,blue,blue,X,no_color_change,figure_change,not_first,update,correct,885,1891,3896,2000,0,0.757247180124828,1.51311680758978,625,-0.192633553740577,1200,0.242982461238889,0.395703466124048,0,NaN
207280074,86,b_2,blue,blue,Y,no_color_change,figure_change,not_first,update,correct,4,1011,3017,2925,0,0.351881277178519,1.40141937025674,1100,-1.27856090804812,1675,-0.137882255412265,0.0461651118546168,0,NaN
207280074,87,b_2,blue,blue,X,no_color_change,figure_change,not_first,update,correct,14,1022,3026,2950,0,0.768582913023134,1.98740192466846,2050,-0.64704538614907,150,-0.526488773722086,0.457238817452221,0,NaN
207280074,88,b_2,blue,blue,Y,no_color_change,figure_change,not_first,update,correct,176,1182,3187,2700,0,0.0624149140989954,1.33369855884045,25,-1.16917802997385,2350,1.33369855884045,-0.174995015940929,0,NaN
207280074,90,b_3,blue,blue,X,no_color_change,figure_change,not_first,update,correct,17,1025,3030,2750,0,-0.336534092540088,0.503929064568928,1700,-1.47234538667951,1750,-0.489256294611071,-0.902684465661569,0,NaN
207280074,91,b_3,red,blue,X,color_change,no_figure_change,not_first,no_update,correct,5,1012,3018,1700,0,-1.03792655752355,0.560356423050146,1375,-2.8898533079039,925,-0.471378319646725,-1.13689391893332,0,NaN
207280074,92,b_3,red,blue,Y,no_color_change,figure_change,not_first,no_update,correct,15,1021,0,2325,0,0.219070498084531,1.74106098838519,1900,-1.66529183523445,25,-1.66529183523445,0.653138324371805,0,NaN
207280074,93,b_3,red,blue,Y,no_color_change,no_figure_change,not_first,no_update,correct,525,1533,3538,2300,0,1.87157810011114,3.61186336858281,850,-0.93895919611378,2125,0.468891426134339,-0.0597060211373688,0,NaN
207280074,94,b_3,blue,blue,X,color_change,figure_change,not_first,update,correct,21,1030,3033,3200,0,1.1395373657366,1.91932195750513,2050,0.580109989137982,1000,0.736582176270125,1.19486490950795,0,NaN
207280074,95,b_3,blue,blue,Y,no_color_change,figure_change,not_first,update,correct,13,1021,3025,2525,0,1.44734760859678,2.06569787752571,1450,0.316729107966815,425,1.49380220963723,0.874617701720286,1,175
207280074,96,b_3,red,blue,Y,color_change,no_figure_change,not_first,no_update,correct,22,1029,3033,1975,0,0.843531275330691,2.01872828705019,225,-0.511563857122387,1725,1.11620980090366,0.172348497652076,0,NaN
207280074,97,b_3,red,blue,Y,no_color_change,no_figure_change,not_first,no_update,correct,11,1019,3024,2550,0,-0.13375475775476,1.28565150112377,2500,-1.39221374889289,1775,0.414060315417796,1.28565150112377,0,NaN
207280074,98,b_3,blue,blue,X,color_change,figure_change,not_first,update,correct,21,1028,3034,2375,0,0.221626827733068,1.30213275929403,1500,-0.93301317319037,1000,0.89732432617277,0.0160359352964,0,NaN
207280074,100,b_0,blue,blue,X,no_color_change,no_figure_change,not_first,update,correct,16,1024,3028,2725,0,0.105879942607179,1.91130081248764,125,-1.28849755038321,2400,1.7879906726666,-0.618871613102579,0,NaN
207280074,101,b_0,red,blue,Y,color_change,figure_change,not_first,no_update,correct,15,1023,3027,2325,0,-0.688729953107993,0.807655107992223,300,-2.17233993768306,1800,-0.116372816783286,-1.0494195414292,0,NaN
207280074,102,b_0,red,blue,Y,no_color_change,no_figure_change,not_first,no_update,correct,5,1012,3018,2725,0,0.384077594591988,1.60893157966432,1450,-1.13860988528035,1950,0.404642453606221,0.491159082451538,1,125
207280074,103,b_0,blue,blue,Y,color_change,no_figure_change,not_first,update,correct,16,1022,3027,2975,0,0.637006644462012,1.15791177375576,1625,-0.210351903928453,650,0.70250228649434,1.05132232926967,2,162.5
207280074,105,b_1,blue,blue,Y,no_color_change,no_figure_change,not_first,update,correct,24,1031,3038,2425,0,0.0579938014757248,1.13648214751501,1600,-1.14918502672131,775,-0.669512573436853,0.63234719723693,0,NaN
207280074,106,b_1,red,blue,Y,color_change,no_figure_change,not_first,no_update,correct,37,1044,3050,2525,0,1.11927060599242,1.82382643498352,775,0.115482171035574,2400,1.0848036261337,0.804622237239343,0,NaN
207280074,107,b_1,blue,blue,X,color_change,figure_change,not_first,update,correct,22,1029,3034,2700,0,0.811750281632493,2.20936017634635,1675,-0.569268213815342,2150,0.461389061640372,-0.323206620890886,0,NaN
207280074,108,b_1,red,blue,Y,color_change,figure_change,not_first,no_update,correct,11,1017,3023,2200,0,0.64542826627664,1.75602581117901,1025,-1.30254453071234,1925,0.532142743809536,-0.6461674498785,1,150
207280074,109,b_1,red,blue,X,no_color_change,figure_change,not_first,no_update,correct,22,1028,3033,2675,0,0.0935836470139559,1.72773231955016,900,-1.3920142179223,350,-0.776341455087643,1.27052705355349,0,NaN
207280074,110,b_1,blue,blue,Y,color_change,figure_change,not_first,update,correct,9,1015,3021,2725,0,0.765166184992137,2.14403373657708,1725,-0.151929235741394,875,0.836347661562233,1.84210347188904,0,NaN
207280074,111,b_1,red,blue,X,color_change,figure_change,not_first,no_update,correct,56,1062,3067,2350,0,0.992865698364212,2.59561222920328,100,-0.238884832721996,1850,1.78631461251369,-0.215938771104811,0,NaN
207280074,112,b_1,red,blue,Y,no_color_change,figure_change,not_first,no_update,correct,22,1030,3035,2975,0,0.214886106208984,2.51575993477547,2250,-1.7272661546979,1150,-0.210750965869621,2.08996084354875,0,NaN
207280074,113,b_1,red,blue,X,no_color_change,figure_change,not_first,no_update,correct,15,1022,3027,2650,0,0.0169370171595583,1.84709174615364,2500,-2.11092430493724,975,1.59173200999996,1.84709174615364,0,NaN
207280074,114,b_1,red,blue,X,no_color_change,no_figure_change,not_first,no_update,correct,22,1029,3034,2875,0,0.251428607223718,1.4615180985967,25,-0.955440454284036,1100,1.4615180985967,0.15674517575239,0,NaN
207280074,115,b_1,blue,blue,Y,color_change,figure_change,not_first,update,correct,63,1071,3076,2750,0,-0.299711050980712,2.06166735191991,1850,-2.86036263045156,900,1.1153717708272,1.43701569540896,0,NaN
207280074,116,b_1,red,blue,X,color_change,figure_change,not_first,no_update,correct,3,1011,3016,2750,0,-0.652295086705747,1.46686552860836,50,-2.68948430724323,1975,1.46686552860836,-0.875628066050349,0,NaN
207280074,117,b_1,red,blue,Y,no_color_change,figure_change,not_first,no_update,correct,15,1022,3028,2475,0,-1.3552912481988,0.551537154150322,425,-3.54654963829068,1200,-0.390328839395416,-2.5920333812099,0,NaN
207280074,118,b_1,red,blue,Y,no_color_change,no_figure_change,not_first,no_update,correct,30,1037,3043,2100,0,-1.53904178261858,1.36518454599864,2125,-3.94285805206505,1600,-2.12046188533116,1.36518454599864,0,NaN
207280074,120,b_2,blue,blue,X,no_color_change,figure_change,not_first,update,correct,22,1029,3034,2275,0,-1.12514197852889,0.258146815003287,1400,-3.53258247034978,2250,-0.211189934004906,-1.59733158665346,0,NaN
207280074,121,b_2,blue,blue,Y,no_color_change,figure_change,not_first,update,correct,13,1021,3026,3025,0,-0.207235230167927,1.88308713324704,2100,-2.57826574423959,450,-2.07644535322028,1.2425927176717,0,NaN
207280074,122,b_2,red,blue,X,color_change,figure_change,not_first,no_update,correct,21,1028,3034,3100,0,0.230655038814254,1.61854897244648,950,-2.34122295118554,2300,0.769784129775338,-1.47657544325589,1,175
207280074,123,b_2,blue,blue,X,color_change,no_figure_change,not_first,update,correct,12,1018,3024,2825,0,-0.858054575347115,0.896286765125732,1925,-2.54522341551084,1225,-0.545164872568769,-1.11909575635721,0,NaN
207280074,124,b_2,red,blue,Y,color_change,figure_change,not_first,no_update,correct,88,1095,3099,3100,0,-0.380901001035312,0.619617121313657,325,-1.59769074240051,2500,-0.142311842959235,-1.59769074240051,1,225
207280074,125,b_2,red,blue,X,no_color_change,figure_change,not_first,no_update,correct,10,1016,3022,2975,0,-0.795822461869662,0.176259304675526,625,-2.57371643811027,2325,-0.571542866880002,-2.03139126006237,1,250
207280074,126,b_2,blue,blue,Y,color_change,figure_change,not_first,update,correct,25,1034,3038,3150,0,-0.989842387046343,0.133240427417569,50,-1.97771742897521,300,-1.29939194137711,-0.993790306830323,2,150
207280074,127,b_2,red,blue,X,color_change,figure_change,not_first,no_update,correct,7,1014,3021,2825,0,-0.699701609286245,0.316090608860946,2100,-1.99719165170423,1475,-1.14515450111551,-0.68914642094234,1,150
207280074,129,b_3,blue,blue,Y,no_color_change,no_figure_change,not_first,update,correct,156,1163,3170,3025,0,-0.641253600665922,0.43968009204081,1500,-2.24860067464035,750,-0.118208501712661,-1.73141639888606,1,150
207280074,130,b_3,red,blue,Y,color_change,no_figure_change,not_first,no_update,correct,10,1017,3021,3325,0,-0.0842866404655797,0.620215714225409,1975,-1.18526022620294,825,-0.0950629091248921,-0.00623172102079862,0,NaN
207280074,131,b_3,blue,blue,X,color_change,figure_change,not_first,update,correct,22,1030,3036,3100,0,0.0823229171580651,1.53215206218351,475,-1.34284978677035,575,-0.791625527434394,-1.249150042984,0,NaN
207280074,132,b_3,red,blue,Y,color_change,figure_change,not_first,no_update,correct,8,1017,3023,3250,0,0.648818678389627,1.53287037367762,1350,-0.120762498136139,1700,0.533020680080104,0.679556224877155,1,150
207280074,133,b_3,red,blue,X,no_color_change,figure_change,not_first,no_update,correct,19,1027,3031,3375,0,0.441713312631063,1.35684415142822,1175,-0.708700456059593,2475,0.205311013992588,-0.544286936298198,0,NaN
207280074,135,b_0,blue,red,X,color_change,no_figure_change,not_first,no_update,correct,23,528,1530,2325,0,-0.0800401579847771,1.64871805519881,2275,-1.99647334021013,1050,-0.54312965666881,1.39826678092151,1,200
207280074,136,b_0,red,red,X,color_change,no_figure_change,not_first,update,correct,12,515,1518,2850,0,1.12541935238194,1.78012915242558,800,0.0755759769187304,1925,1.50397828913702,0.086629992689096,1,175
207280074,137,b_0,red,red,Y,no_color_change,figure_change,not_first,update,correct,68,572,1575,3025,0,0.842032697976119,2.34759523276709,2075,-0.766325000364315,850,0.584699201461419,1.58602542424125,0,NaN
207280074,138,b_0,blue,red,X,color_change,figure_change,not_first,no_update,correct,6,509,1511,3325,0,0.433510594430346,1.66587771866906,25,-1.22963591406087,1275,1.66587771866906,0.962291610194991,0,NaN
207280074,139,b_0,red,red,Y,color_change,figure_change,not_first,update,correct,12,515,1518,1900,0,-0.82476269815695,0.0723435751952661,575,-1.85811856520703,25,-1.85811856520703,-1.44229602250953,0,NaN
207280074,141,b_1,blue,red,Y,color_change,figure_change,not_first,no_update,correct,6,510,1512,2325,0,-0.616599749180518,0.866955712449852,1100,-2.54470463498732,275,-0.81632746159272,-0.196624173152259,0,NaN
207280074,142,b_1,blue,red,X,no_color_change,figure_change,not_first,no_update,correct,12,515,1518,3125,0,-0.0473289820113828,0.752704278693329,1600,-1.63276828702922,2325,-0.186647624623048,-0.416999479130173,1,225
207280074,143,b_1,blue,red,Y,no_color_change,figure_change,not_first,no_update,correct,5,508,1511,2600,0,0.708613321530423,1.7287698805972,1050,-1.31834738358261,2300,1.09390223839234,-1.28813839463616,1,150
207280074,144,b_1,blue,red,X,no_color_change,figure_change,not_first,no_update,correct,61,564,1567,2350,0,-0.260568388376884,0.7535822149639,900,-2.26344577885181,100,-1.66521202284621,-0.0309735613732415,1,250
207280074,145,b_1,red,red,X,color_change,no_figure_change,not_first,update,correct,6,510,1513,3225,0,-0.258186261630489,1.12917931399163,1425,-2.04599692710913,375,-0.161387003747086,-0.811578624492815,1,125
207280074,146,b_1,red,red,X,no_color_change,no_figure_change,not_first,update,correct,10,513,0,1925,0,-0.951491814115514,-0.233337871739754,550,-2.52918112547587,150,-0.528723520592629,-1.37022543593451,0,NaN
207280074,147,b_1,blue,red,Y,color_change,figure_change,not_first,no_update,correct,691,1194,2197,2850,0,-0.359835213411337,1.20771470401358,1725,-2.3209905107683,1300,-1.3865470693283,0.370802000995138,0,NaN
207280074,148,b_1,red,red,Y,color_change,no_figure_change,not_first,update,correct,8,511,1513,2450,0,-0.145406386921204,1.37635828035136,650,-2.10777171560201,1400,0.598347119849379,-2.04148752717393,0,NaN
207280074,149,b_1,blue,red,Y,color_change,no_figure_change,not_first,no_update,correct,2,505,0,975,0,-1.36944163735262,0.150360184693695,900,-2.95629712110845,750,-0.995306742206763,-2.67743263661995,1,150
207280074,150,b_1,blue,red,Y,no_color_change,no_figure_change,not_first,no_update,correct,16,520,1523,1525,0,0.0427344664571527,1.79293904073709,575,-2.06028334460296,150,-0.891071763173568,-1.86438383768338,1,125
207280074,152,b_2,red,red,X,no_color_change,no_figure_change,not_first,update,correct,5,508,1511,3075,0,-0.258944080256768,0.884394719278913,1300,-1.86310683947164,1975,-0.576730672115192,-0.697287284542176,0,NaN
207280074,153,b_2,blue,red,Y,color_change,figure_change,not_first,no_update,correct,11,515,1518,1825,0,-0.303093899055997,0.846204491509093,1775,-1.84279458666617,350,-1.44572795520357,0.846204491509093,1,175
207280074,154,b_2,blue,red,Y,no_color_change,no_figure_change,not_first,no_update,correct,3,506,1509,2775,0,1.17483638974265,2.66664525473126,525,-0.681444525477789,2075,0.919711701072319,1.30317032034107,0,NaN
207280074,155,b_2,blue,red,X,no_color_change,figure_change,not_first,no_update,correct,11,515,1517,3100,0,-0.00666603343343695,1.56703007584164,50,-1.09124123286365,2250,1.37105075653382,0.34744357537208,0,NaN
207280074,156,b_2,red,red,X,color_change,no_figure_change,not_first,update,correct,4,508,1511,2325,0,0.0638521378256078,1.39551325352744,825,-1.12204881472186,1500,0.121827255900152,-0.292478851420916,0,NaN
207280074,157,b_2,red,red,X,no_color_change,no_figure_change,not_first,update,correct,59,563,1565,2250,0,-0.856455113160432,0.95838080317154,300,-3.11620124093464,1825,-0.390448557977767,-0.50027040418732,1,125
207280074,158,b_2,red,red,Y,no_color_change,figure_change,not_first,update,correct,3,507,1509,2400,0,-0.459425797402636,1.25835566434785,625,-2.22920626429956,925,-0.730808487600324,0.0824797485009443,1,225
207280074,159,b_2,red,red,X,no_color_change,figure_change,not_first,update,correct,8,511,1514,2750,0,-0.169824769431151,1.487576843355,1175,-2.09360501669053,850,-0.0200791703793433,-1.14802774709192,0,NaN
207280074,160,b_2,red,red,Y,no_color_change,figure_change,not_first,update,correct,70,573,1575,1925,0,-1.46991005867538,-0.0807764916310621,1050,-3.45644145197485,700,-3.33927686604779,-3.14621069891051,0,NaN
207280074,161,b_2,red,red,Y,no_color_change,no_figure_change,not_first,update,correct,43,546,1549,2675,0,0.589382592402971,2.73811724839452,1175,-2.23004429437601,200,-0.0445416673729683,1.03069082691126,1,175
207280074,163,b_3,blue,red,Y,color_change,no_figure_change,not_first,no_update,correct,7,510,0,2375,0,0.0293406604149556,0.828007266991813,900,-1.33343192495878,2025,-0.0221143862793023,-0.173478580564489,0,NaN
207280074,164,b_3,red,red,X,color_change,figure_change,not_first,update,correct,344,848,82,1250,0,0.513591152288498,1.94653798189282,250,-1.09367551070478,900,-0.0467764142435115,0.497583979704349,0,NaN
207280074,165,b_3,red,red,X,no_color_change,no_figure_change,not_first,update,correct,913,1416,2418,2950,0,1.5907000358201,4.37949891861441,125,-0.799487047675412,950,0.215926061627669,1.14590000932659,0,NaN
207280074,166,b_3,red,red,Y,no_color_change,figure_change,not_first,update,correct,11,514,1516,2850,0,0.501355115048391,1.60254658860563,1950,-1.0152997454593,975,0.924221101007522,0.374593089436238,0,NaN
207280074,167,b_3,blue,red,X,color_change,figure_change,not_first,no_update,correct,11,514,1518,2525,0,-0.975722777443922,2.01773063219727,50,-3.69376358838771,2075,1.33709058534038,-1.00803681813004,0,NaN
207280074,168,b_3,red,red,X,color_change,no_figure_change,not_first,update,correct,5,508,1511,3175,0,0.30041226331632,1.40082077734498,1925,-1.2100419727495,2325,-0.82390963847492,-0.228110160310448,0,NaN
207280074,169,b_3,red,red,X,no_color_change,no_figure_change,not_first,update,correct,11,514,1516,3000,0,-0.843721268075198,0.981805739118127,75,-3.06097106827693,1100,0.856220946232421,-0.458887680888156,0,NaN
207280074,170,b_3,red,red,X,no_color_change,no_figure_change,not_first,update,correct,6,510,1513,2625,0,-0.618655720592407,0.771819345675297,1775,-2.41341325634291,2425,-1.53679389017821,-2.16016854847742,0,NaN
207280074,171,b_3,blue,red,Y,color_change,figure_change,not_first,no_update,correct,35,538,1540,2500,0,-0.615797239907817,0.568217943291162,1050,-2.20350667528831,250,-1.80943300838448,-0.724104246988695,1,125
207280074,172,b_3,red,red,X,color_change,figure_change,not_first,update,correct,4,507,1509,3000,0,-0.341106943323937,0.829364077591786,2400,-2.18782354100039,2450,-0.68016752726605,-1.88701064974763,1,200
207280074,173,b_3,blue,red,Y,color_change,figure_change,not_first,no_update,correct,44,548,1550,2200,0,-1.35973369395541,0.424914800217578,2200,-3.34797641636527,1625,-2.45455654247738,-0.0218749491146012,0,NaN
207280074,174,b_3,red,red,X,color_change,figure_change,not_first,update,correct,2,506,1509,1950,0,0.871099894937632,1.96728920283358,1650,-0.277713559597684,1575,-0.143030154453338,1.51495249251916,0,NaN
207280074,175,b_3,red,red,Y,no_color_change,figure_change,not_first,update,correct,7,512,1514,2750,0,-0.274714609109804,1.69053974663327,25,-2.08247118853193,675,1.69053974663327,-0.363511876948898,1,175
207280074,176,b_3,blue,red,X,color_change,figure_change,not_first,no_update,correct,1,504,1508,2750,0,-1.14059960811901,0.243820491315342,175,-3.16855816761594,775,-0.183774378646635,-1.96007889117557,1,125
207280074,178,b_0,blue,red,Y,color_change,figure_change,not_first,no_update,correct,23,1031,3036,2250,0,0.765658004715499,1.69640595716844,375,-0.970963963795488,1450,1.53051590822472,1.1118201195508,0,NaN
207280074,179,b_0,red,red,Y,color_change,no_figure_change,not_first,update,correct,12,1019,3025,1625,0,0.732357031225323,1.84369971965371,1100,-0.958233887872215,425,1.24295187341875,-0.574416112856415,0,NaN
207280074,180,b_0,red,red,X,no_color_change,figure_change,not_first,update,correct,21,1029,3034,1975,0,0.0804905004954742,1.0620570954871,1125,-1.34284978677035,1900,-1.08701117628727,-0.939118820890247,0,NaN
207280074,181,b_0,red,red,X,no_color_change,no_figure_change,not_first,update,correct,21,1028,3034,2425,0,-0.543812541235483,0.84927726845609,900,-2.44450018155993,2025,-0.914656323896622,-1.2022203587026,0,NaN
207280074,183,b_1,blue,red,Y,color_change,figure_change,not_first,no_update,correct,9,1017,3023,2250,0,-0.716118130741601,0.38329263975371,1550,-2.14512391329537,900,0.0705477964600081,-0.800404890140099,0,NaN
207280074,184,b_1,blue,red,Y,no_color_change,no_figure_change,not_first,no_update,correct,23,1029,3036,1175,0,-1.44202941517011,-0.480117776158314,150,-2.58584792112179,750,-0.945264374784241,-1.97121271933417,0,NaN
207280074,185,b_1,blue,red,X,no_color_change,figure_change,not_first,no_update,correct,309,1317,3323,1500,0,-0.532827207554312,0.495708388580858,950,-2.3086594967862,1400,-0.463995673735112,-2.07544769836736,1,225
207280074,186,b_1,blue,red,Y,no_color_change,figure_change,not_first,no_update,correct,22,1029,3034,1950,0,-0.224408481949838,1.24981573880685,1275,-2.00984191523927,100,-1.41021144243958,-0.238565583169061,0,NaN
207280074,187,b_1,blue,red,X,no_color_change,figure_change,not_first,no_update,correct,7,1014,3019,1750,0,-0.505681908933193,1.23014198510724,1700,-3.01164701234851,400,0.00015327003789633,1.11445392836252,0,NaN
207280074,188,b_1,red,red,X,color_change,no_figure_change,not_first,update,correct,18,1025,3030,2100,0,0.65876087238055,1.82646024379524,600,-0.146501993341503,850,0.96281039071851,0.253597508873969,0,NaN
207280074,190,b_2,blue,red,X,color_change,no_figure_change,not_first,no_update,correct,17,1023,3029,2175,0,-0.170935921127976,0.713276958905888,1225,-1.19328137122042,1950,-0.658179214307669,-0.741184098070704,0,NaN
207280074,191,b_2,blue,red,X,no_color_change,no_figure_change,not_first,no_update,correct,5,1012,3018,1050,0,-1.8602827801996,-0.191436367917069,400,-3.42703058691073,350,-1.44648617289179,-0.348108086019796,0,NaN
207280074,192,b_2,blue,red,X,no_color_change,no_figure_change,not_first,no_update,correct,14,1021,3027,2200,0,-0.468162283946691,0.660481064089304,2200,-1.97859536524578,600,-0.686313081160044,0.34410475713097,0,NaN
207280074,193,b_2,red,red,X,color_change,no_figure_change,not_first,update,correct,4,1010,3016,2225,0,-0.119668440679453,0.740532889487692,1575,-1.58100995325967,1925,0.468492364193171,0.274867510338246,0,NaN
207280074,194,b_2,blue,red,X,color_change,no_figure_change,not_first,no_update,correct,22,1029,3036,2600,0,0.928845031719841,2.03560860716161,1200,-0.20229085271685,2000,0.619417590343072,0.513067583021685,0,NaN
207280074,195,b_2,blue,red,Y,no_color_change,figure_change,not_first,no_update,correct,25,1032,3038,1725,0,0.725484833774718,1.67761013973941,900,-0.877304126203257,1625,0.603933987025737,-0.812376748375152,0,NaN
207280074,197,b_3,blue,red,Y,color_change,figure_change,not_first,no_update,correct,26,1034,3039,2700,0,0.174469112807445,1.5818751800531,2075,-1.48774917760861,2500,-0.119325875147933,-1.48774917760861,0,NaN
207280074,198,b_3,blue,red,X,no_color_change,figure_change,not_first,no_update,correct,15,1021,3026,2525,0,-0.16869382788988,0.997129717658995,1325,-1.57406627548334,550,-0.261192395233311,-0.0573914618785919,0,NaN
207280074,199,b_3,red,red,Y,color_change,figure_change,not_first,update,correct,22,1030,3034,1875,0,0.0968087326018321,2.02647008870885,1675,-1.65834815745812,725,-0.173757923923307,0.244059928480043,0,NaN
207280074,200,b_3,blue,red,X,color_change,figure_change,not_first,no_update,correct,113,1120,3126,2225,0,0.00353588046955325,1.29215621076482,1675,-2.00900388516282,2225,0.531623963286017,-2.00900388516282,0,NaN
207280074,201,b_3,blue,red,X,no_color_change,no_figure_change,not_first,no_update,correct,22,1030,3036,2525,0,0.000861504210252811,0.880723349420163,1125,-1.59952642732989,2125,-1.44133827385072,0.653657104895324,0,NaN
207280074,202,b_3,blue,red,X,no_color_change,no_figure_change,not_first,no_update,correct,12,1018,3025,1875,0,-0.64915243319844,0.393548531641739,25,-1.6277401065705,600,0.393548531641739,-1.17033530960324,1,125
207280074,203,b_3,red,red,Y,color_change,figure_change,not_first,update,correct,39,1046,3051,2300,0,-0.401940674357459,1.031967825123,1075,-1.77742824070278,1700,-0.846576356733287,0.744523508899376,0,NaN
207280074,204,b_3,red,red,X,no_color_change,figure_change,not_first,update,correct,22,1029,3033,2475,0,1.39432654811855,2.88676782147976,1825,-0.272366129586027,2450,0.905624814549073,-0.174795484970345,1,225
207280074,205,b_3,blue,red,X,color_change,no_figure_change,not_first,no_update,correct,132,1139,3145,1975,0,0.13414008478114,1.20775461020769,1375,-0.967571937295556,625,-0.436580118376838,-0.183774378646635,0,NaN
207280074,206,b_3,red,red,X,color_change,no_figure_change,not_first,update,correct,90,1098,3103,2150,0,-0.222815861220028,0.714553957117627,2100,-1.15217799128007,1600,-0.543967686745264,-0.41291574526555,0,NaN
207280074,207,b_3,red,red,Y,no_color_change,figure_change,not_first,update,correct,20,1027,3034,2225,0,0.00796246882440573,0.972148440141851,625,-1.29767597503009,775,-0.453580157070613,-1.08058627903446,1,175
207280074,208,b_3,red,red,X,no_color_change,figure_change,not_first,update,correct,6,1013,3018,2850,0,0.309888388171306,1.29702476644707,1850,-0.579763542868072,200,-0.472974567411399,0.175181837434372,1,175
207280074,209,b_3,red,red,Y,no_color_change,figure_change,not_first,update,correct,15,1023,3030,2900,0,0.166287544889609,0.940063860071909,350,-2.0049334533629,2350,0.646793239507227,-1.92464219079981,1,125
207280074,210,b_3,red,red,Y,no_color_change,no_figure_change,not_first,update,correct,5,1012,3017,2275,0,-0.165674317036769,1.25376645202442,1525,-1.78165829727916,2125,-0.398349984412902,-1.42936641561567,1,150
207601006,2,b_0,blue,blue,Y,no_color_change,no_figure_change,not_first,update,correct,17,1024,3030,2325,0,2.02935405385077,3.45351630125499,350,0.663728114091553,1950,1.70478581710052,1.13845458376799,1,125
207601006,3,b_0,red,blue,X,color_change,figure_change,not_first,no_update,correct,61,1070,3074,1025,0,1.76343882963674,3.30404612976265,400,0.154854001561142,800,1.01993999286284,2.82649876785045,0,NaN
207601006,4,b_0,red,blue,X,no_color_change,no_figure_change,not_first,no_update,correct,132,1138,3144,850,0,1.10558420249135,3.36926070421312,675,-1.78187410330569,750,0.252805772747703,2.287448531798,0,NaN
207601006,5,b_0,blue,blue,X,color_change,no_figure_change,not_first,update,correct,28,1035,3041,1050,0,-0.364107098431361,1.18136183935407,950,-1.47473090263544,450,-1.129728358801,0.00898417936971157,1,275
207601006,6,b_0,red,blue,Y,color_change,figure_change,not_first,no_update,correct,18,1025,3031,3275,0,-0.174118181693324,2.17431590634266,2150,-2.38996196512814,525,2.10906421488909,-0.440242909175552,0,NaN
207601006,7,b_0,red,blue,X,no_color_change,figure_change,not_first,no_update,correct,5,1013,3017,3000,0,0.213316920368893,1.43609583164409,1750,-0.77485269214139,2425,0.695834321774908,0.721704872937103,0,NaN
207601006,8,b_0,blue,blue,X,color_change,no_figure_change,not_first,update,correct,22,1028,3035,2800,0,0.545063053766964,1.9847222544969,1400,-0.650919018783328,2425,0.178980053577536,-0.0942753232604563,1,150
207601006,9,b_0,red,blue,Y,color_change,figure_change,not_first,no_update,correct,5,1011,3017,2575,0,0.455419487054194,3.33463054031882,2500,-1.64491236185878,500,1.29304690168842,-0.258518061987449,1,225
207601006,10,b_0,blue,blue,Y,color_change,no_figure_change,not_first,update,correct,15,1022,3026,2175,0,0.847159499854102,3.57574259247035,1575,-1.46964587321045,500,0.295341858302762,0.371543065671466,0,NaN
207601006,11,b_0,blue,blue,Y,no_color_change,no_figure_change,not_first,update,correct,3,1011,3015,1850,0,0.673002415933342,3.20698516665054,1025,-1.39181151770525,1600,1.22081721365165,1.309972255103,0,NaN
207601006,12,b_0,red,blue,X,color_change,figure_change,not_first,no_update,correct,14,1021,3026,1625,0,1.56001180304683,5.40342094222308,500,-1.51604212708813,1475,2.99679157808309,0.499670960380071,0,NaN
207601006,13,b_0,blue,blue,X,color_change,no_figure_change,not_first,update,correct,22,1030,3036,2400,0,0.506867449837205,3.57963987779608,225,-1.58741812405355,400,1.32931021371922,-0.365526381930933,0,NaN
207601006,15,b_1,red,blue,Y,color_change,no_figure_change,not_first,no_update,correct,17,1023,3028,550,0,0.367588417704583,1.53746236711605,200,-1.19256744505293,400,1.08058917593174,0.672005205783331,0,NaN
207601006,16,b_1,red,blue,X,no_color_change,figure_change,not_first,no_update,correct,23,1032,3037,1600,0,0.00278621088247018,2.37430231905702,150,-1.79390001231079,800,-1.36646060458648,-1.10589924280942,0,NaN
207601006,17,b_1,blue,blue,X,color_change,no_figure_change,not_first,update,correct,4,1010,3017,2550,0,0.599575377043555,2.55840265444366,625,-1.09101532456546,1125,1.01199695419898,-0.365897551961955,0,NaN
207601006,18,b_1,red,blue,X,color_change,no_figure_change,not_first,no_update,correct,15,1023,3029,2325,0,0.639151270085869,3.06000183436605,1375,-1.41508387865029,1050,2.07057388267216,1.32964426674714,0,NaN
207601006,19,b_1,blue,blue,Y,color_change,figure_change,not_first,update,correct,20,1028,3032,1950,0,0.57099480560696,2.39434550073217,1675,-1.03901440321936,1825,1.67568608666844,1.95042614363052,0,NaN
207601006,20,b_1,blue,blue,Y,no_color_change,no_figure_change,not_first,update,correct,13,1020,3026,2400,0,0.653427759095258,3.83938466550489,350,-1.02212616680788,2000,2.32141058963646,1.294345996797,1,225
207601006,21,b_1,red,blue,Y,color_change,no_figure_change,not_first,no_update,correct,57,1065,3071,1925,0,0.687563978629148,4.06732018155516,100,-1.75990083746922,1550,2.83050740418548,1.92926945186229,0,NaN
207601006,22,b_1,red,blue,Y,no_color_change,no_figure_change,not_first,no_update,correct,22,1028,3033,1250,0,0.239865671956202,1.47829786417123,1075,-1.0621754131551,300,0.923806954828284,0.16918116475857,1,150
207601006,23,b_1,red,blue,Y,no_color_change,no_figure_change,not_first,no_update,correct,23,1029,3035,2025,0,0.323205864119369,3.41253912983022,450,-1.61722307754458,1350,0.703517541417052,0.115844031300788,0,NaN
207601006,24,b_1,red,blue,Y,no_color_change,no_figure_change,not_first,no_update,correct,10,1017,3022,2850,0,0.441037740028674,1.65538308597157,1750,-1.04766266494216,275,0.315496390987226,0.683474359741894,1,200
207601006,25,b_1,red,blue,X,no_color_change,figure_change,not_first,no_update,correct,21,1029,3033,3325,0,0.562814866987544,2.34494276960322,2425,-0.866271870781974,1475,1.36794901394855,1.02805624420784,1,250
207601006,26,b_1,blue,blue,X,color_change,no_figure_change,not_first,update,correct,8,1015,3020,2975,0,0.531427831563642,3.23333823885306,75,-0.923543406568584,2450,0.336541731746143,1.30536974671834,0,NaN
207601006,27,b_1,red,blue,Y,color_change,figure_change,not_first,no_update,correct,19,1026,3032,2900,0,0.413187069529417,3.35530471104671,950,-1.78343301743598,2125,-1.14472362805427,0.780275503832288,0,NaN
207601006,28,b_1,red,blue,Y,no_color_change,no_figure_change,not_first,no_update,correct,6,1015,3020,2925,0,0.20476800121322,2.28210368335129,300,-1.09795620414557,425,-0.983672951594059,0.355805456356156,1,200
207601006,29,b_1,red,blue,Y,no_color_change,no_figure_change,not_first,no_update,correct,90,1096,3102,3250,0,0.462446245190492,2.11218204314967,1225,-0.540384583545139,2525,0.0950213925604841,-0.497811380986979,0,NaN
207601006,30,b_1,red,blue,Y,no_color_change,no_figure_change,not_first,no_update,correct,3,1011,3015,2850,0,0.237402216460313,3.05265266775182,75,-1.37618525939924,2100,-0.531068215766501,-0.754957978478641,0,NaN
207601006,31,b_1,red,blue,X,no_color_change,figure_change,not_first,no_update,correct,16,1023,3028,3275,0,0.838549198702656,3.67250661955765,250,-1.47803431591153,500,1.43420286448588,0.352502043080065,0,NaN
207601006,32,b_1,blue,blue,Y,color_change,figure_change,not_first,update,correct,3,1009,3014,2800,0,0.683284044127948,4.08342896090149,25,-1.38498198913445,650,4.08342896090149,2.08954067125736,0,NaN
207601006,33,b_1,red,blue,X,color_change,figure_change,not_first,no_update,correct,14,1022,3027,2675,0,0.74604107269165,3.32382949241609,1025,-1.47387721156409,200,-0.267203440713351,-0.204327237458317,0,NaN
207601006,35,b_2,blue,blue,X,no_color_change,figure_change,not_first,update,correct,14,1021,3027,3275,0,0.0599072520571056,1.30421911962217,1475,-1.01581627628052,850,0.364639303094467,0.396337223743699,0,NaN
207601006,36,b_2,red,blue,X,color_change,no_figure_change,not_first,no_update,correct,48,1055,3061,2125,0,-0.15437517468345,2.45046640942262,300,-2.05264264093584,1625,-0.962590493832041,-1.05619957565565,0,NaN
207601006,37,b_2,blue,blue,X,color_change,no_figure_change,not_first,update,correct,20,1026,3032,3375,0,0.160739593798143,1.98531612654653,575,-1.33643294907685,1175,-1.09884701222002,1.2251227860115,0,NaN
207601006,38,b_2,red,blue,Y,color_change,figure_change,not_first,no_update,correct,22,1029,3034,3450,0,0.434630690287307,1.65816686120423,1975,-0.522865358080927,2275,0.958993873769117,-0.421090535574845,1,225
207601006,39,b_2,red,blue,X,no_color_change,figure_change,not_first,no_update,correct,10,1017,3021,2825,0,-0.165098931885597,1.53638597402609,175,-1.2853599528083,1650,-0.391953688139661,-0.749353311010217,1,175
207601006,40,b_2,red,blue,Y,no_color_change,figure_change,not_first,no_update,correct,23,1029,3034,2950,0,0.393013068612933,2.7771702707277,1400,-1.63604139811736,2475,1.26342753321291,1.70589932719358,0,NaN
207601006,42,b_3,blue,blue,X,no_color_change,figure_change,not_first,update,correct,15,1024,3029,2325,0,0.441976769687169,2.28180674732647,1925,-1.27552394698623,2225,0.273962464515926,0.0091697643852223,1,125
207601006,43,b_3,blue,blue,Y,no_color_change,figure_change,not_first,update,correct,19,1026,3032,2700,0,0.189028208544787,2.03223201846765,2000,-2.18953014837655,2175,-1.81052842970055,-1.4791478260046,0,NaN
207601006,44,b_3,red,blue,X,color_change,figure_change,not_first,no_update,correct,22,1029,3034,2875,0,0.148994609561625,2.95752178880102,2300,-2.14168633137789,875,-1.53563990472606,1.3324280419798,0,NaN
207601006,46,b_4,red,blue,X,color_change,no_figure_change,not_first,no_update,correct,8,1014,3020,2550,0,0.0794850156247382,2.69165269558036,1775,-2.41078460386844,2000,-1.44488883214132,-0.254398074643111,0,NaN
207601006,47,b_4,blue,blue,Y,color_change,figure_change,not_first,update,correct,15,1023,3028,2475,0,-0.186874747615843,2.39746332899275,1175,-2.20055389829789,900,1.27968478057165,-1.56522215619847,0,NaN
207601006,48,b_4,blue,blue,X,no_color_change,figure_change,not_first,update,correct,20,1028,3033,2800,0,0.109959530740348,2.67205491794242,1950,-2.09929871383524,375,-1.5554232673795,-1.32054687174913,0,NaN
207601006,49,b_4,red,blue,X,color_change,no_figure_change,not_first,no_update,correct,15,1022,3028,3275,0,0.0822080208621239,2.27241614554163,750,-2.99470929667139,1350,-0.633882314359443,0.471573389031747,0,NaN
207601006,50,b_4,blue,blue,X,color_change,no_figure_change,not_first,update,correct,5,1011,3016,2425,0,0.0161284449770152,2.09711253989019,600,-2.13125645350618,100,-1.50564936621953,-0.600848181598534,0,NaN
207601006,51,b_4,red,blue,Y,color_change,figure_change,not_first,no_update,correct,15,1023,3028,3050,0,-0.522154312746989,0.417790851536739,1325,-1.2681376633689,25,-1.2681376633689,-0.84285104182452,1,200
207601006,52,b_4,blue,blue,Y,color_change,no_figure_change,not_first,update,correct,21,1028,3033,2900,0,-0.525833262760349,0.167325314603463,2175,-1.18080135506955,200,-1.06759449560801,-0.214014775267977,0,NaN
207601006,53,b_4,blue,blue,Y,no_color_change,no_figure_change,not_first,update,correct,15,1021,3027,3075,0,-0.859947424567118,0.454425333598556,1625,-1.80128629592811,425,-0.983784302603365,-0.883531277224471,0,NaN
207601006,54,b_4,red,blue,Y,color_change,no_figure_change,not_first,no_update,correct,22,1029,3034,3025,0,-1.03154169520755,-0.0561561610745532,2325,-1.89233430453768,2100,-0.812897620321089,-1.37180545303319,2,187.5
207601006,55,b_4,blue,blue,X,color_change,figure_change,not_first,update,correct,12,1019,3024,3000,0,-0.817631566563799,0.419609584688744,475,-2.02320885747584,625,-0.981000527370705,-0.0614861627200204,1,375
207601006,57,b_0,blue,red,Y,color_change,figure_change,not_first,no_update,correct,19,1028,3033,2675,0,-0.334852817788883,1.13195910822511,1175,-2.04685238845191,1075,0.64984635493135,0.215911471664171,0,NaN
207601006,58,b_0,blue,red,Y,no_color_change,no_figure_change,not_first,no_update,correct,12,1019,3024,3250,0,0.298332688189982,1.47235914367489,1900,-0.477693965305616,500,-0.185137746854508,0.529958434911421,0,NaN
207601006,59,b_0,red,red,X,color_change,figure_change,not_first,update,correct,21,1029,3035,3050,0,-0.065701053146801,1.27170462490469,1725,-1.54788851574977,2275,1.06730128882117,-0.846636976140939,0,NaN
207601006,60,b_0,blue,red,X,color_change,no_figure_change,not_first,no_update,correct,10,1016,3022,2900,0,-0.535759028655279,0.745125701894557,2450,-1.18024460002302,2425,-0.882788937162428,0.109435162098483,1,150
207601006,61,b_0,blue,red,Y,no_color_change,figure_change,not_first,no_update,correct,22,1028,3033,3175,0,-0.291865142029415,1.34411989795698,1925,-1.67215624213575,25,-1.67215624213575,0.424174976070308,0,NaN
207601006,62,b_0,blue,red,X,no_color_change,figure_change,not_first,no_update,correct,9,1016,3021,3275,0,0.249833865254221,0.531405998032405,1000,-0.124414329779398,1700,0.174785832226994,0.359739858684984,2,212.5
207601006,63,b_0,blue,red,X,no_color_change,no_figure_change,not_first,no_update,correct,20,1027,3033,3225,0,-0.351487057453641,0.721704872937103,625,-1.15489368690425,1025,0.061504738759247,-0.0698894522223469,1,125
207601006,64,b_0,blue,red,X,no_color_change,no_figure_change,not_first,no_update,correct,7,1014,3020,2650,0,-0.33128521878483,1.8999099024085,1925,-1.77407953265424,600,-0.735694253868627,-0.659864216530945,0,NaN
207601006,65,b_0,blue,red,X,no_color_change,no_figure_change,not_first,no_update,correct,17,1025,3030,3075,0,-0.265954016888339,0.509581200208344,575,-0.975024689871259,1125,-0.589935782686503,0.0569393473776831,1,125
207601006,66,b_0,blue,red,X,no_color_change,no_figure_change,not_first,no_update,correct,4,1012,3017,3000,0,0.0118689346843415,0.625423366890139,2150,-0.830676664807017,1325,-0.205849034585505,-0.182725141652868,1,300
207601006,67,b_0,blue,red,X,no_color_change,no_figure_change,not_first,no_update,correct,15,1021,3026,2975,0,0.186264083490239,1.67416428954125,1000,-1.07008133481585,600,-0.237212902206817,0.764018256473549,0,NaN
207601006,69,b_1,red,red,Y,no_color_change,figure_change,not_first,update,correct,7,1016,3022,2950,0,-0.55767249487564,1.16239505076887,2450,-1.51719275418429,1050,-0.495807062819463,-0.573802258671437,0,NaN
207601006,70,b_1,red,red,X,no_color_change,figure_change,not_first,update,correct,20,1026,3032,2725,0,-0.553628439701047,1.59610723201744,900,-1.88598729700721,2550,1.00171554433969,-1.88598729700721,0,NaN
207601006,71,b_1,blue,red,X,color_change,no_figure_change,not_first,no_update,correct,7,1014,3018,3225,0,0.110591975361834,1.65393552285058,600,-1.52220354960308,525,0.534932113327109,-0.514514032382944,2,212.5
207601006,72,b_1,red,red,Y,color_change,figure_change,not_first,update,correct,15,1022,3027,2925,0,-0.488728813938665,0.211086261260892,2300,-1.12831791268312,1625,-0.14382652240182,0.0319101149524706,0,NaN
207601006,73,b_1,blue,red,Y,color_change,no_figure_change,not_first,no_update,correct,5,1012,3018,3450,0,-0.61849913603454,0.0567537623621724,1275,-1.43817065457983,625,-0.822213988099728,-0.309962228287022,1,200
207601006,75,b_2,red,red,Y,no_color_change,figure_change,not_first,update,correct,6,1014,3019,2875,0,-0.581829356430557,0.767878424796172,1750,-1.79167299212466,2450,-0.233130031865581,-0.177306059199955,0,NaN
207601006,76,b_2,red,red,Y,no_color_change,no_figure_change,not_first,update,correct,14,1020,3026,3100,0,-0.791618627696834,0.541019301835861,25,-1.41033290225322,1325,0.541019301835861,-0.558797991356812,1,275
207601006,77,b_2,red,red,Y,no_color_change,no_figure_change,not_first,update,correct,4,1012,3018,2800,0,-0.934406134197052,0.303433364979029,1800,-2.13359482470162,675,-1.01284691603235,-1.63882517335002,1,225
207601006,78,b_2,blue,red,Y,color_change,no_figure_change,not_first,no_update,correct,15,1023,3027,2700,0,-0.650894456060687,2.00766056241403,1750,-2.2647291966615,2475,-0.954981508196101,-1.90521390461412,1,150
207601006,80,b_3,blue,red,X,color_change,figure_change,not_first,no_update,correct,15,1024,3029,3250,0,-0.381636848413769,0.619150593365876,1875,-1.05545723559361,2500,-0.580693648914069,-0.767689110542676,0,NaN
207601006,81,b_3,red,red,Y,color_change,figure_change,not_first,update,correct,3,1011,3017,2850,0,-0.637834729351541,0.607421620385598,2175,-1.99967667750908,1950,-0.00126011348648049,-1.39752753618298,0,NaN
207601006,82,b_3,blue,red,Y,color_change,no_figure_change,not_first,no_update,correct,15,1022,3027,2125,0,-0.293007181269962,1.56155130212934,1950,-1.37161986801768,275,-1.31961894667158,0.608015492435233,1,225
207601006,83,b_3,red,red,Y,color_change,no_figure_change,not_first,update,correct,22,1028,3033,2900,0,-0.0149020676952679,2.43651041625621,1575,-1.44544558718785,550,1.14342826218368,-1.05746155376112,0,NaN
207601006,84,b_3,red,red,Y,no_color_change,no_figure_change,not_first,update,correct,11,1019,3025,2775,0,-0.401209649815211,1.81494908230769,2000,-2.53698241441573,2025,-1.1885216917148,0.202178180516377,0,NaN
207601006,85,b_3,blue,red,X,color_change,figure_change,not_first,no_update,correct,18,1025,3030,2800,0,-0.39955612371623,1.90900356816852,2500,-1.78777570679893,1150,0.0329246463705952,-0.110866623647115,0,NaN
207601006,86,b_3,blue,red,Y,no_color_change,figure_change,not_first,no_update,correct,6,1013,3018,2650,0,-0.562613665589264,0.799761930460915,125,-1.76390947380425,2300,-1.14546596811631,-1.14156868279058,1,300
207601006,87,b_3,red,red,Y,color_change,no_figure_change,not_first,update,correct,16,1024,3030,3075,0,-1.02021627866296,0.96838447555396,1175,-2.61529929096126,2550,-0.862263234446942,-2.61529929096126,0,NaN
207601006,88,b_3,red,red,Y,no_color_change,no_figure_change,not_first,update,correct,4,1011,3016,3000,0,-0.473168056226372,0.672227907801944,1600,-1.43045031793458,100,-0.33969294777184,-0.836800970318871,0,NaN
207601006,89,b_3,red,red,X,no_color_change,figure_change,not_first,update,correct,16,1023,3029,2775,0,-0.436460691757903,0.541947226913414,250,-1.26717262128824,100,-1.2456818764921,-0.807295604067172,1,350
207601006,90,b_3,red,red,Y,no_color_change,figure_change,not_first,update,correct,2,1009,3014,2625,0,-0.488816693901892,1.72627656189666,1775,-2.35013542079953,650,-1.24152477214466,1.28714529819518,0,NaN
207601006,91,b_3,red,red,Y,no_color_change,no_figure_change,not_first,update,correct,15,1021,3026,3300,0,-0.378044091227132,1.53772218613777,1700,-1.5536787682337,1450,-1.05575417161843,-0.825740103394431,1,375
207601006,92,b_3,red,red,Y,no_color_change,no_figure_change,not_first,update,correct,22,1030,3036,2800,0,-0.350257101860648,1.38324121922664,1175,-1.76142263459641,2075,-0.429924382313155,1.07888179378904,0,NaN
207601006,93,b_3,blue,red,X,color_change,figure_change,not_first,no_update,correct,13,1020,3024,2925,0,-0.0506606612623121,0.920614892561499,1375,-1.07509213023464,175,0.732951324877053,-0.137553748877558,2,162.5
207601006,94,b_3,blue,red,X,no_color_change,no_figure_change,not_first,no_update,correct,22,1031,3036,3075,0,-0.196954539149315,0.85384140398074,2425,-1.26850883339992,2475,-0.441987408321352,-0.973733842985597,1,225
207601006,95,b_3,red,red,Y,color_change,figure_change,not_first,update,correct,11,1018,3023,2850,0,-0.920442681240806,0.622899410679193,2350,-1.80926645159507,1350,-0.162793310987016,-0.894258091120991,0,NaN
207601006,96,b_3,red,red,Y,no_color_change,no_figure_change,not_first,update,correct,22,1028,3034,2625,0,-0.869624409503347,2.06890361753256,125,-2.488025087324,1200,-0.95739411339774,1.01938323781631,1,125
207601006,97,b_3,red,red,X,no_color_change,figure_change,not_first,update,correct,9,1015,3020,1775,0,-0.203606548981417,1.62086427308657,1150,-1.35888873595364,25,-1.35888873595364,-0.522531305053007,0,NaN
207601006,98,b_3,blue,red,Y,color_change,figure_change,not_first,no_update,correct,16,1023,3029,750,0,-0.139133695976272,2.43595366120968,575,-2.04648121842088,725,-0.669663105349911,0.718772629692034,0,NaN
207601006,99,b_3,blue,red,Y,no_color_change,no_figure_change,not_first,no_update,correct,21,1028,0,1500,0,-0.115368916123405,1.78102414147233,975,-2.22605327942906,25,-2.22605327942906,0.327262480970607,0,NaN
207601006,100,b_3,red,red,Y,color_change,no_figure_change,not_first,update,correct,527,1534,4,600,0,-0.676034857549113,0.71784470461448,300,-1.70081056853061,600,-0.446998203740142,-1.70081056853061,0,NaN
207601006,101,b_3,blue,red,X,color_change,figure_change,not_first,no_update,correct,769,1776,3782,475,0,-0.913754285382013,0.809078298239553,100,-2.05824730840426,425,0.0543782741636351,-1.34370788168487,0,NaN
207601006,102,b_3,red,red,Y,color_change,figure_change,not_first,update,correct,433,1440,0,575,0,-0.324445928410576,0.938913575090857,400,-2.10635094442464,300,-1.77114728940917,-1.76350118677013,0,NaN
207601006,103,b_3,red,red,Y,no_color_change,no_figure_change,not_first,update,correct,644,1652,120,1175,0,-0.265892499752722,2.01449009098482,350,-1.66120672622062,25,-1.66120672622062,-0.828041357586764,0,NaN
207601006,104,b_3,red,red,Y,no_color_change,no_figure_change,not_first,update,correct,578,1586,3590,1175,0,-0.187808591630922,1.39537847924104,1175,-1.57335077987784,225,-0.865603764726135,1.39537847924104,0,NaN
207601006,105,b_3,red,red,X,no_color_change,figure_change,not_first,update,correct,424,1431,3435,1300,0,0.0330752153454435,2.08954067125736,750,-1.2699192795178,475,-1.08396309397606,-0.594686759083578,0,NaN
207601006,107,b_4,blue,red,Y,color_change,figure_change,not_first,no_update,correct,22,1032,3036,2475,0,0.619711097604641,2.03379093259794,900,-1.29074191825811,2175,-0.269430460899479,0.500932938485544,1,125
207601006,108,b_4,red,red,Y,color_change,no_figure_change,not_first,update,correct,21,1028,3034,2600,0,0.159186501942849,2.3740425000353,2550,-1.39466952694411,1475,-0.606638434082468,2.3740425000353,0,NaN
207601006,109,b_4,blue,red,X,color_change,figure_change,not_first,no_update,correct,21,1028,3033,3225,0,0.351040834002059,2.76276887352407,50,-1.76179380462743,1400,0.669778185597202,-1.51852896629597,0,NaN
207917279,2,b_0,red,blue,X,color_change,no_figure_change,not_first,no_update,correct,18,1024,3029,3150,0,0.532201411468084,1.95400124040229,1250,-0.986001742745915,375,1.42482321117394,0.606385576017302,0,NaN
207917279,3,b_0,red,blue,X,no_color_change,no_figure_change,not_first,no_update,correct,6,1013,3018,2675,0,0.453095486876855,1.61452124331707,1925,-0.605691301589851,2625,1.18216165726449,-0.509154205143264,1,125
207917279,4,b_0,red,blue,X,no_color_change,no_figure_change,not_first,no_update,correct,17,1025,3030,3300,0,0.145605697529397,1.00909825048356,1625,-0.495966077213402,25,-0.495966077213402,0.149830171256064,1,225
207917279,6,b_1,red,blue,X,color_change,no_figure_change,not_first,no_update,correct,72,1080,3086,3200,0,0.235423997436614,1.24564051303356,400,-0.525577820458585,950,0.928211065847072,0.504221544987307,1,125
207917279,7,b_1,red,blue,Y,no_color_change,figure_change,not_first,no_update,correct,5,1013,3019,3175,0,0.233423346104301,1.46948700442974,850,-0.765988600534676,2350,0.53316508975071,0.0102821935875545,0,NaN
207917279,8,b_1,red,blue,Y,no_color_change,no_figure_change,not_first,no_update,correct,17,1023,3028,2900,0,-0.0910226781549974,1.23410529713757,475,-0.93437461794315,2200,0.177472487397054,-0.28034897764545,0,NaN
207917279,9,b_1,red,blue,X,no_color_change,figure_change,not_first,no_update,correct,4,1011,3017,3000,0,-0.224896227545748,0.626783213882154,1400,-0.958957288404412,2200,-0.340170325935303,-0.262413123660838,1,200
207917279,10,b_1,blue,blue,X,color_change,no_figure_change,not_first,update,correct,15,1022,3027,3025,0,0.0696943401509851,0.781981103360766,2450,-0.54157941568015,50,-0.115831477763069,0.728138373065785,1,225
207917279,11,b_1,red,blue,X,color_change,no_figure_change,not_first,no_update,correct,167,1176,3180,3000,0,-0.510508679291524,0.659911791241967,300,-1.34879835001112,2375,0.346280524899283,-0.340381335982181,0,NaN
207917279,12,b_1,red,blue,Y,no_color_change,figure_change,not_first,no_update,correct,13,1020,3026,2875,0,-0.650012285688494,0.889701732291876,2450,-1.91092911489355,50,-1.58105007494127,0.331650494982423,0,NaN
207917279,13,b_1,blue,blue,Y,color_change,no_figure_change,not_first,update,correct,22,1028,3033,3125,0,0.366670274538084,1.83805121964294,900,-1.67132720666382,1800,-0.171362288433074,0.858120561942501,0,NaN
207917279,14,b_1,red,blue,Y,color_change,no_figure_change,not_first,no_update,correct,23,1030,3035,2375,0,-0.505508173649054,0.95226621119114,1450,-1.89563088649491,75,-1.6501206969526,0.49659001495856,0,NaN
207917279,15,b_1,red,blue,Y,no_color_change,no_figure_change,not_first,no_update,correct,22,1030,3036,2325,0,-0.360800299330494,1.07461687003911,1100,-3.18820809698594,1950,-0.0414856045797959,0.23128004935089,1,125
207917279,17,b_2,red,blue,X,color_change,no_figure_change,not_first,no_update,correct,15,1021,3028,2025,0,-1.3730104503592,-0.327791069851806,1225,-2.17789199253509,600,-1.18916924954808,-1.53726549021413,0,NaN
207917279,18,b_2,red,blue,Y,no_color_change,figure_change,not_first,no_update,correct,176,1184,3190,2150,0,-0.749574390705941,0.208701974334966,900,-2.08430903674479,25,-2.08430903674479,-1.83612605327537,0,NaN
207917279,19,b_2,red,blue,Y,no_color_change,no_figure_change,not_first,no_update,correct,156,1162,3167,2700,0,-1.23410666564504,-0.00547322324598694,400,-1.92429308452914,2250,-1.65648616670008,-1.38692083181371,0,NaN
207917279,20,b_2,red,blue,X,no_color_change,figure_change,not_first,no_update,correct,8,1015,3020,2875,0,-1.26129162901308,-0.11896146012509,2675,-2.00335151542602,25,-2.00335151542602,-0.11896146012509,1,225
207917279,21,b_2,blue,blue,Y,color_change,figure_change,not_first,update,correct,16,1025,3029,3025,0,-0.249743071410714,0.95511484682399,2525,-0.995497194855415,1675,0.044008632746854,0.934805129812003,1,200
207917279,22,b_2,red,blue,X,color_change,figure_change,not_first,no_update,correct,6,1014,3019,3025,0,-0.0911886595781645,1.18096593366551,1075,-1.42743476081424,1450,-0.497091464130083,-0.639488077431443,0,NaN
207917279,23,b_2,blue,blue,Y,color_change,figure_change,not_first,update,correct,15,1023,3028,2925,0,-0.489574970731255,0.283505035953142,1925,-1.38836273380071,2625,-0.907330163601647,-0.942463336406798,0,NaN
207917279,24,b_2,red,blue,Y,color_change,no_figure_change,not_first,no_update,correct,148,1155,3161,2775,0,-0.149892837853472,1.07760617903655,2275,-1.31296181038305,25,-1.31296181038305,-1.23675201511902,0,NaN
207917279,25,b_2,red,blue,X,no_color_change,figure_change,not_first,no_update,correct,15,1022,3028,3075,0,-0.729499638876922,0.262790883017972,1900,-1.32259793585713,100,-1.05792100039009,-0.60864544224614,1,125
207917279,26,b_2,red,blue,Y,no_color_change,figure_change,not_first,no_update,correct,22,1028,3034,3275,0,-0.340735320126242,0.492053298950688,25,-1.27023227589029,2125,0.492053298950688,-1.00485197360033,0,NaN
207917279,27,b_2,red,blue,X,no_color_change,figure_change,not_first,no_update,correct,14,1021,3027,3275,0,-0.678794121817841,0.00680052781407098,2200,-1.49383258889845,2525,-0.496036413895695,-1.33265608142497,0,NaN
207917279,28,b_2,red,blue,Y,no_color_change,figure_change,not_first,no_update,correct,22,1030,3035,3275,0,-0.746272308195022,0.498594610403899,1175,-1.68025996531498,1500,-0.754594058003276,-0.406321975631489,0,NaN
207917279,29,b_2,blue,blue,Y,color_change,no_figure_change,not_first,update,correct,12,1018,3024,3000,0,-0.620703581794124,0.270211402999841,425,-1.59198742903777,2575,-0.486505793445048,-1.48676375232805,0,NaN
207917279,31,b_3,red,blue,Y,color_change,no_figure_change,not_first,no_update,correct,236,1243,3249,2625,0,0.0095404765259499,1.12670118327678,1625,-1.21297821650412,2475,0.799670778957354,-0.586243208935948,1,150
207917279,32,b_3,red,blue,X,no_color_change,figure_change,not_first,no_update,correct,22,1031,3036,2525,0,-0.721203633192552,0.506050298726914,1350,-1.86717969850755,2075,-0.552551938117795,-1.02152176730368,0,NaN
207917279,33,b_3,red,blue,X,no_color_change,no_figure_change,not_first,no_update,correct,100,1106,3112,2875,0,-1.2687609542333,-0.333312499411775,450,-1.95524122473788,2350,-0.850920144402985,-1.58818924819397,1,175
207917279,35,b_0,red,blue,Y,color_change,figure_change,not_first,no_update,correct,22,1030,3035,2925,0,0.871134491547059,2.26102085860947,2250,-0.106089847265545,125,0.410744094220447,0.848695446515293,1,175
207917279,36,b_0,red,blue,X,no_color_change,figure_change,not_first,no_update,correct,21,1027,3032,3150,0,0.506360240275521,1.63136687872615,100,-0.823066818215118,2025,0.687026582265762,0.184400650602875,0,NaN
207917279,37,b_0,blue,blue,X,color_change,no_figure_change,not_first,update,correct,16,1023,3028,2675,0,1.05638044177433,1.81385540093429,2250,0.452453746819956,1950,1.12350086423246,0.663604467062328,0,NaN
207917279,38,b_0,red,blue,Y,color_change,figure_change,not_first,no_update,correct,7,1012,3017,2500,0,1.69626723884435,3.53872186079561,575,0.225442104720604,175,0.484034917169332,1.7268137565972,0,NaN
207917279,39,b_0,blue,blue,X,color_change,figure_change,not_first,update,correct,113,1121,3126,3025,0,0.762534325411206,2.02852295529129,2450,-1.32607960163061,1250,1.24054110356734,-0.655524840994155,1,125
207917279,40,b_0,red,blue,Y,color_change,figure_change,not_first,no_update,correct,5,1011,3017,2825,0,-0.410244889049729,0.85565877806226,1075,-1.85884480165588,2000,-0.854190800129593,-0.45105610556958,0,NaN
207917279,41,b_0,red,blue,Y,no_color_change,no_figure_change,not_first,no_update,correct,16,1022,3027,2550,0,-0.34466152997228,1.0286518481609,1475,-2.20782025085059,450,-0.109360502992151,-1.41596988160055,1,125
207917279,42,b_0,blue,blue,Y,color_change,no_figure_change,not_first,update,correct,179,1186,3191,1950,0,-0.125119977711209,1.54935430717298,275,-2.16892406554279,1150,-0.104577608596254,0.387990177498792,0,NaN
207917279,43,b_0,red,blue,X,color_change,figure_change,not_first,no_update,correct,390,1397,3401,3100,0,0.200670774186277,1.37312574968889,325,-1.31661931786226,1250,0.799846620663084,-0.574743161381109,1,300
207917279,44,b_0,red,blue,X,no_color_change,no_figure_change,not_first,no_update,correct,22,1029,3034,2075,0,-0.575455320289321,1.24381175929395,2075,-2.53189651451373,1100,-1.76068996151656,-0.00723164030330183,0,NaN
207917279,45,b_0,blue,blue,X,color_change,no_figure_change,not_first,update,correct,13,1019,3025,1500,0,0.522666167640502,2.44287635067697,1200,-3.26304632694526,1400,0.213168353660546,-2.04196635400465,0,NaN
207917279,46,b_0,blue,blue,X,no_color_change,no_figure_change,not_first,update,correct,100,1106,3111,1750,0,-0.419152391291405,2.64811878960677,1575,-3.55620961874079,25,-3.55620961874079,0.883758282638152,0,NaN
207917279,47,b_0,red,blue,Y,color_change,figure_change,not_first,no_update,correct,23,1030,3035,2150,0,0.156935402970214,2.82526172396067,275,-2.94357711597229,2025,2.50572217630541,0.0865623255338743,0,NaN
207917279,48,b_0,blue,blue,Y,color_change,no_figure_change,not_first,update,correct,40,1047,3053,2250,0,-0.950613116385843,2.0160733625255,600,-3.27313964085424,250,-0.6270736530068,-0.844800853043529,0,NaN
207917279,49,b_0,blue,blue,Y,no_color_change,no_figure_change,not_first,update,correct,8,1015,3021,1600,0,-1.76290719016299,-0.742144465237486,1225,-3.06163723720041,1450,-1.08074525379404,-2.12714407626099,0,NaN
207917279,51,b_1,red,blue,Y,color_change,figure_change,not_first,no_update,correct,69,1077,3083,1875,0,-1.01898825851715,-0.10176414130455,300,-2.09732132296892,1375,-1.31282113701846,-1.48968272464319,0,NaN
207917279,52,b_1,red,blue,X,no_color_change,figure_change,not_first,no_update,correct,13,1020,3025,2950,0,-0.350988699288858,0.78194593501962,2325,-1.74187489900329,100,-1.17313248598537,-0.0431033482725256,0,NaN
207917279,53,b_1,red,blue,Y,no_color_change,figure_change,not_first,no_update,correct,22,1030,3035,2925,0,1.85737474406045,3.00687103764015,2575,0.31923607055778,225,0.870429481343705,2.81573110351002,0,NaN
207917279,54,b_1,blue,blue,Y,color_change,no_figure_change,not_first,update,correct,12,1018,3025,2900,0,1.72301212465451,3.33893051474349,600,-0.276234281731333,50,1.46836161751306,-0.250948244447145,0,NaN
207917279,55,b_1,red,blue,Y,color_change,no_figure_change,not_first,no_update,correct,134,1140,3147,1700,0,1.14382918478723,3.39206987821555,1575,-1.28570634599466,1425,0.0518160044813321,3.11575222182909,0,NaN
207917279,57,b_2,red,blue,X,color_change,no_figure_change,not_first,no_update,correct,18,1026,3030,1950,0,1.04116376456923,2.63338325466647,350,-0.90370782446358,700,1.06399603101293,0.181200331558562,0,NaN
207917279,58,b_2,blue,blue,Y,color_change,figure_change,not_first,update,correct,16,1023,3028,3175,0,1.07897873036951,1.96687285326183,650,-0.0738404784343898,50,0.347159733427941,0.593724973204634,0,NaN
207917279,59,b_2,blue,blue,X,no_color_change,figure_change,not_first,update,correct,4,1010,3016,3100,0,0.850435786387907,1.75997750229816,1600,-0.0306537555067361,1100,0.847745901304343,1.41216260836128,1,200
207917279,60,b_2,red,blue,X,color_change,no_figure_change,not_first,no_update,correct,65,1073,3079,2900,0,0.255775291973414,1.25467877670815,250,-0.459566844126984,850,0.686077037054812,0.00440908061612273,1,150
207917279,61,b_2,blue,blue,X,color_change,no_figure_change,not_first,update,correct,127,1135,3139,2825,0,0.244884938557139,1.35198957665996,525,-1.00967003633737,975,0.171247691014159,0.319482248945804,0,NaN
207917279,62,b_2,red,blue,Y,color_change,figure_change,not_first,no_update,correct,14,1020,3026,2925,0,-0.0168830492153622,1.16225637617568,325,-1.23840492715289,725,0.0494597256245302,-0.540594702128054,0,NaN
207917279,63,b_2,red,blue,X,no_color_change,figure_change,not_first,no_update,correct,64,1072,3077,2775,0,-0.128274825683235,1.30124166038585,350,-1.60844621269424,2525,0.443837503239113,-1.27072463266634,0,NaN
207917279,65,b_3,red,blue,Y,color_change,no_figure_change,not_first,no_update,correct,1349,2356,4362,2600,0,0.905448440774277,2.82730148774715,50,-1.35312405597212,1800,0.781699756631596,0.310373648588913,0,NaN
207917279,66,b_3,red,blue,Y,no_color_change,no_figure_change,not_first,no_update,correct,7,1013,3019,2225,0,0.195992768084535,1.53989402340463,1625,-1.34155367173499,1425,0.15405037219362,0.115330028591546,1,125
207917279,67,b_3,red,blue,X,no_color_change,figure_change,not_first,no_update,correct,48,1057,3062,2500,0,-0.49019143559718,0.0864568205104354,625,-1.3717984451208,2050,-0.0803817898876012,-0.552938789870404,0,NaN
207917279,68,b_3,blue,blue,X,color_change,no_figure_change,not_first,update,correct,411,1418,3423,2225,0,0.551876622990043,1.8066458909993,1550,-0.720304925385635,1425,-0.286222090616882,0.450554656398056,0,NaN
207917279,69,b_3,red,blue,X,color_change,no_figure_change,not_first,no_update,correct,499,1506,3512,2275,0,0.448091713121953,2.04684566102851,400,-0.795002481980372,1825,0.621894814462819,-0.180154373719648,0,NaN
207917279,70,b_3,blue,blue,Y,color_change,figure_change,not_first,update,correct,92,1101,3106,2875,0,-0.496090645449799,0.667683994635299,350,-1.45187675791092,950,-0.335950124997747,0.0380300147519834,1,125
208488783,2,b_0,red,blue,Y,color_change,no_figure_change,not_first,no_update,correct,16,1025,3031,3000,0,0.476651199598159,1.6150509139334,825,-1.05794067816957,2125,-0.341177135766538,0.254681161179662,0,NaN
208488783,3,b_0,red,blue,Y,no_color_change,no_figure_change,not_first,no_update,correct,9,1016,3023,3350,0,1.18071903831919,2.81137389366254,2675,-0.511118101420937,325,0.0614110801585424,1.80520054003285,0,NaN
208488783,4,b_0,red,blue,X,no_color_change,figure_change,not_first,no_update,correct,165,1174,3180,2975,0,1.51393785550681,2.64301792098422,275,-0.503787508906553,750,2.4038325746872,2.12680552108619,1,125
208488783,6,b_1,red,blue,X,color_change,no_figure_change,not_first,no_update,correct,4,1011,3018,3125,0,0.417288668888161,1.97202105076559,2200,-2.15886689315072,2675,1.77538285967029,-0.979582587914467,0,NaN
208488783,7,b_1,blue,blue,X,color_change,no_figure_change,not_first,update,correct,15,1023,3029,3100,0,0.0267917552687461,1.20552835373795,1625,-1.54388961843052,3000,-0.128936670062925,0.181127580883311,0,NaN
208488783,8,b_1,red,blue,Y,color_change,figure_change,not_first,no_update,correct,3,1012,3018,2875,0,-0.0784769327384076,1.85096721221725,2025,-1.85192309712614,1950,-0.717216719342229,-0.55262510498211,0,NaN
208488783,9,b_1,red,blue,Y,no_color_change,no_figure_change,not_first,no_update,correct,14,1020,3025,3275,0,0.0992996577351895,2.03244890797875,2650,-1.37384959071511,250,0.0637885696226669,0.275682318112759,1,125
208488783,10,b_1,blue,blue,X,color_change,figure_change,not_first,update,correct,22,1029,3035,3175,0,0.142432302465247,1.44823040320066,1675,-0.997166103742887,2950,0.280140110857996,0.279238646102848,2,250
208488783,11,b_1,blue,blue,Y,no_color_change,figure_change,not_first,update,correct,13,1020,3025,3400,0,-0.197254492957265,1.69638086601865,2075,-1.78649260583222,2450,-0.194268099295846,-1.77886482713482,2,187.5
208488783,12,b_1,blue,blue,Y,no_color_change,no_figure_change,not_first,update,correct,23,1029,3034,2300,0,-0.66548075041112,2.61260586825563,2275,-3.21729548396064,2025,-2.08912720220307,2.29778663838115,0,NaN
208488783,13,b_1,red,blue,Y,color_change,no_figure_change,not_first,no_update,correct,22,1029,3034,3225,0,-0.200186648093546,1.51787103208731,650,-2.08724502304397,1550,-1.14526388494564,0.205447316860084,0,NaN
208488783,14,b_1,blue,blue,Y,color_change,no_figure_change,not_first,update,correct,21,1028,3032,3125,0,0.403568164091583,1.44099887274728,2275,-1.33630506959415,2425,-0.448907127109679,-0.396007986532909,2,125
208488783,15,b_1,blue,blue,X,no_color_change,figure_change,not_first,update,correct,9,1016,3023,3375,0,0.0930407366080436,2.69576846846948,950,-2.48032328111255,2050,-0.0051090938064408,0.156906906967543,0,NaN
208488783,16,b_1,blue,blue,X,no_color_change,no_figure_change,not_first,update,correct,20,1027,3034,2825,0,-0.413450360840783,1.13316351817366,1825,-1.93676975237709,2675,-1.25814510346105,-0.824748586563359,0,NaN
208488783,17,b_1,blue,blue,X,no_color_change,no_figure_change,not_first,update,correct,56,1065,3070,2525,0,-0.268440327067237,1.1033953688416,550,-1.68648945524748,250,-1.34779626867075,-1.13194003774044,2,125
208488783,18,b_1,blue,blue,X,no_color_change,no_figure_change,not_first,update,correct,20,1027,3034,2725,0,-0.00721506316699206,1.6380828431171,2500,-1.58143413955148,1900,0.324569445218822,0.19504580045454,0,NaN
208488783,19,b_1,blue,blue,Y,no_color_change,figure_change,not_first,update,correct,5,1011,3017,2625,0,-0.0924612715626187,1.14866673072097,2075,-1.60897339251092,2500,0.0930118776191971,0.381381537205297,1,150
208488783,20,b_1,blue,blue,X,no_color_change,figure_change,not_first,update,correct,16,1024,3030,2025,0,-0.458750513366634,1.98133288450007,1500,-2.63897117181236,1825,-1.31698796769813,0.365927855688488,1,200
208488783,22,b_2,blue,blue,X,no_color_change,figure_change,not_first,update,correct,9,1017,3023,3075,0,0.152117338187414,2.06845796715414,1600,-1.77118751740692,2700,-0.173118349271238,0.438144098161269,1,125
208488783,23,b_2,blue,blue,X,no_color_change,no_figure_change,not_first,update,correct,20,1029,3034,2950,0,-0.326991906480457,2.42121796639361,1025,-2.71401068302379,1800,1.55863507019094,1.54595512638228,0,NaN
208488783,24,b_2,blue,blue,Y,no_color_change,figure_change,not_first,update,correct,8,1016,3021,3000,0,-0.236027711112582,2.51260271767089,1700,-2.18095773275487,1325,1.87077962441829,-1.74077546467832,1,125
208488783,25,b_2,blue,blue,Y,no_color_change,no_figure_change,not_first,update,correct,19,1027,3033,3250,0,-0.335595684519407,2.03928419018811,1775,-2.36367770427894,575,-1.06081347793872,-0.0976825898157882,0,NaN
