participant_id,trial_id,block,border_color,dominant,figure,is_color_change,is_figure_change,is_first,is_update,is_correct,event_fixation,event_stimulus_on,event_stimulus_off,event_Trial_Offset,event_Trial_Onset,trial_mean,trial_max,trial_max_latency,trial_min,trial_min_latency,first_bin,last_bin,valid_blinks,blinks_mean
206993057,2,b_0,blue,blue,Y,no_color_change,figure_change,not_first,update,correct,109,1117,3122,2700,0,-0.429077576961968,0.613575200444463,300,-1.42639612978925,2175,0,-1.31379600281666,1,125
206993057,3,b_0,blue,blue,X,no_color_change,figure_change,not_first,update,correct,24,1031,3036,2550,0,-0.382641003639503,0.525347395327416,925,-1.26837558398818,625,-0.219646560932186,0.290150493958878,0,NaN
206993057,4,b_0,blue,blue,Y,no_color_change,figure_change,not_first,update,correct,16,1023,3027,2850,0,-0.164952400992895,0.714876159186317,1975,-1.36909320519054,1725,-0.371601994507565,-1.00783945881508,0,NaN
206993057,5,b_0,blue,blue,X,no_color_change,figure_change,not_first,update,correct,6,1013,3018,2600,0,0.0956036106872329,1.58446462114151,1750,-0.993895294343632,900,-0.104713083801628,0.147184851231853,1,125
206993057,6,b_0,blue,blue,Y,no_color_change,figure_change,not_first,update,correct,16,1022,3027,2775,0,1.24717502379468,2.86553778527016,1675,-0.487390500634366,1225,0.625817297848622,1.32384059579122,0,NaN
206993057,8,b_1,blue,blue,Y,no_color_change,figure_change,not_first,update,correct,22,1030,3035,2525,0,0.18174487626778,2.19346102144721,525,-0.776646010971007,2150,0.592527103471517,-0.0271371819742314,1,150
206993057,9,b_1,red,blue,X,color_change,figure_change,not_first,no_update,correct,12,1018,3023,2400,0,0.637605977587021,1.94802774489934,1500,-0.390971997188819,900,0,0.738609207025971,1,175
206993057,10,b_1,red,blue,Y,no_color_change,figure_change,not_first,no_update,correct,22,1029,3034,2550,0,-0.0246116863876212,2.17244488817506,2025,-1.33179156636377,1075,-0.0378290398898731,0.545348681099354,0,NaN
206993057,11,b_1,red,blue,X,no_color_change,figure_change,not_first,no_update,correct,9,1017,3021,2675,0,0.741776882419446,2.52985499953002,1200,-0.617282989736585,1825,0.539587224031209,1.54697120010997,0,NaN
206993057,12,b_1,red,blue,X,no_color_change,no_figure_change,not_first,no_update,correct,22,1029,3035,2500,0,-0.387770814393092,1.01620595749795,950,-1.21708982606397,325,0.147288733259433,-0.456609456769602,0,NaN
206993057,13,b_1,red,blue,X,no_color_change,no_figure_change,not_first,no_update,correct,69,1075,3081,2575,0,-1.13031582449725,-0.0233654652805221,175,-2.24908585175422,100,-0.122245173687219,-0.699357782450758,1,125
206993057,14,b_1,red,blue,X,no_color_change,no_figure_change,not_first,no_update,correct,41,1048,3053,2550,0,-0.279463085535675,1.65683043973946,1825,-1.44097157735138,1025,1.09626703706209,0.0932461061417279,0,NaN
206993057,16,b_2,red,blue,X,color_change,figure_change,not_first,no_update,correct,387,1395,3400,1900,0,1.38640453244931,2.997507914924,1100,-0.00165412151609745,125,0.235684347805649,0.935401721890341,0,NaN
206993057,17,b_2,blue,blue,Y,color_change,figure_change,not_first,update,correct,21,1027,3033,2475,0,-0.892646639839442,0.82972173613969,1475,-2.40085749405004,2100,-0.434122993260918,-1.50774374831035,1,125
206993057,18,b_2,blue,blue,X,no_color_change,figure_change,not_first,update,correct,236,1243,3248,2475,0,-0.0524637837492174,1.74569751887239,1550,-1.58794067360287,550,-1.00178233751459,0.0688737842861902,0,NaN
206993057,19,b_2,blue,blue,Y,no_color_change,figure_change,not_first,update,correct,22,1030,3039,2725,0,0.530811099625948,2.44144340313341,2000,-0.739847800431745,1575,1.26262211784523,1.12533003200917,0,NaN
206993057,20,b_2,red,blue,X,color_change,figure_change,not_first,no_update,correct,148,1154,3159,3100,0,-0.101706770613583,1.5976416567939,1475,-1.55931717954171,1600,-1.49034750415314,1.177566710032,0,NaN
206993057,21,b_2,blue,blue,X,color_change,no_figure_change,not_first,update,correct,21,1028,3034,2800,0,0.0267596107586008,1.69120739994356,1700,-1.31510651454922,575,0.522318834677171,0.341604061312257,0,NaN
206993057,22,b_2,blue,blue,X,no_color_change,no_figure_change,not_first,update,correct,22,1029,3033,2750,0,-0.327468023830077,1.19683283068568,1850,-1.77764523781614,1550,-0.802976109500187,0.130723545322866,0,NaN
206993057,23,b_2,blue,blue,X,no_color_change,no_figure_change,not_first,update,correct,18,1024,3029,2450,0,-0.770753611696768,0.673467184807498,1100,-2.99114713846596,1700,-0.56864222805309,0.263892313756486,0,NaN
206993057,24,b_2,blue,blue,X,no_color_change,no_figure_change,not_first,update,correct,5,1011,3015,2275,0,-1.10407998256302,0.0157421226411179,1025,-3.4109743665467,1850,-1.91032655981265,-1.83812055971867,0,NaN
206993057,25,b_2,blue,blue,Y,no_color_change,figure_change,not_first,update,correct,20,1028,3033,2500,0,0.150856772166548,1.90357422801988,775,-1.44661317054155,1150,0.543606659406073,-0.035759390263453,0,NaN
206993057,27,b_3,blue,blue,Y,no_color_change,no_figure_change,not_first,update,correct,26,1032,3039,3050,0,0.290123070556492,2.08162003236849,1850,-1.10647144854062,1575,1.20283401550978,-1.0317403160839,0,NaN
206993057,28,b_3,blue,blue,Y,no_color_change,no_figure_change,not_first,update,correct,12,1018,3023,2625,0,0.11136852562636,2.1187059162149,1125,-1.46176396471797,600,-0.252625109226548,0.664581275986725,0,NaN
206993057,29,b_3,red,blue,X,color_change,figure_change,not_first,no_update,correct,22,1029,3034,2275,0,-0.13630693188744,1.75887455452478,1675,-1.81135096030357,700,-0.7723149295134,1.17467399511013,0,NaN
206993057,31,b_0,red,blue,Y,color_change,no_figure_change,not_first,no_update,correct,179,1185,3189,1375,0,2.55586208027521,3.44910706159412,1225,-0.2080996740203,1350,-0.0164373331333909,-0.0356634991610707,0,NaN
206993057,32,b_0,red,blue,Y,no_color_change,no_figure_change,not_first,no_update,correct,128,1136,3141,2675,0,-0.0580954664182542,0.408583996326394,800,-1.18300853009221,900,0.32962566443965,-0.025491051383333,1,150
206993057,33,b_0,blue,blue,X,color_change,figure_change,not_first,update,correct,21,1028,3034,2325,0,-1.17038032571141,0.552676359506413,500,-3.43126332562578,1350,-0.224489061602499,-0.173019512398723,0,NaN
206993057,34,b_0,red,blue,X,color_change,no_figure_change,not_first,no_update,correct,34,1042,3047,2375,0,0.0977835441619905,0.802121080503943,1050,-1.59174435399737,825,0.269549888797049,-1.27531170706051,2,137.5
206993057,36,b_1,red,blue,Y,color_change,no_figure_change,not_first,no_update,correct,53,1059,3064,1650,0,2.05727216758704,3.50100012983342,1075,-0.0700164865895809,300,-0.0655735321791946,1.92200130152771,0,NaN
206993057,37,b_1,blue,blue,Y,color_change,no_figure_change,not_first,update,correct,8,1016,3021,1975,0,1.81581921931042,3.20382561262503,1925,-0.490115406127067,400,1.13133920775847,2.66689936668493,0,NaN
206993057,38,b_1,red,blue,Y,color_change,no_figure_change,not_first,no_update,correct,38,1044,3049,2175,0,-0.353735586611924,0.787257959634664,2175,-2.92630078047984,600,-0.0431589869972983,0.787257959634664,1,225
206993057,39,b_1,blue,blue,X,color_change,figure_change,not_first,update,correct,30,1039,3045,2500,0,-1.21579066507743,0.397236882544472,1000,-3.09617186835034,1625,-0.718344220722481,-1.64431665087855,0,NaN
206993057,40,b_1,blue,blue,X,no_color_change,no_figure_change,not_first,update,correct,18,1025,3031,2100,0,1.63660027103862,3.42661260716024,1475,-0.0846079160021094,1625,1.24709575018447,0.261223344740174,0,NaN
206993057,41,b_1,blue,blue,Y,no_color_change,figure_change,not_first,update,correct,5,1012,0,225,0,0.0770974451811346,0.189776482540055,200,-0.0271371819742314,50,-0.0271371819742314,0.0625209987533535,0,NaN
206993057,42,b_1,red,blue,X,color_change,figure_change,not_first,no_update,correct,1790,2798,4803,625,0,1.56929884398033,2.98479435293313,100,-0.0111473406519593,225,0.17718278442716,1.98436248177709,0,NaN
206993057,43,b_1,blue,blue,Y,color_change,figure_change,not_first,update,correct,170,1178,3182,1050,0,NaN,NaN,25,NaN,25,NaN,NaN,0,NaN
206993057,44,b_1,red,blue,Y,color_change,no_figure_change,not_first,no_update,correct,146,1154,3159,1450,0,-0.56154229101419,0.21503579709263,600,-1.88369280612592,300,-0.713581629304153,-0.661049287048971,2,175
206993057,45,b_1,red,blue,X,no_color_change,figure_change,not_first,no_update,correct,375,1382,3388,1275,0,NaN,NaN,25,NaN,25,NaN,NaN,0,NaN
206993057,46,b_1,red,blue,Y,no_color_change,figure_change,not_first,no_update,correct,13,1020,3027,2175,0,-0.263298941101626,0.799827684971963,1675,-1.65088519139175,1025,-0.577528136873863,-0.737210795116227,1,125
206993057,47,b_1,red,blue,X,no_color_change,figure_change,not_first,no_update,correct,20,1027,3032,2150,0,0.572298311358632,1.67302804511689,725,-1.29142141226076,1650,-0.61594051430323,1.31748781025839,0,NaN
206993057,48,b_1,blue,blue,X,color_change,no_figure_change,not_first,update,correct,22,1029,3033,1025,0,0.0841857953784959,0.918181278087493,475,-1.56775559655137,950,-0.555968620688211,0.4910263715997,1,250
206993057,49,b_1,red,blue,X,color_change,no_figure_change,not_first,no_update,correct,22,1031,3035,2250,0,-0.426839809778261,0.375637411732826,800,-1.36461029615416,2200,-0.512258259852213,-0.58054870659891,1,300
206993057,51,b_2,blue,blue,Y,no_color_change,no_figure_change,not_first,update,correct,24,1032,3036,275,0,0.228405341397528,1.43161420394389,50,-1.86297233708612,275,1.43161420394389,-1.13843514933477,0,NaN
206993057,52,b_2,blue,blue,X,no_color_change,figure_change,not_first,update,correct,16,1025,3029,2500,0,-0.180621697247544,0.567795189982045,1600,-2.11123440115426,1125,0.0319637007941479,-1.92726732123354,1,225
206993057,53,b_2,blue,blue,Y,no_color_change,figure_change,not_first,update,correct,5,1013,3019,950,0,0.345721280377051,2.1885705752257,850,-1.71774526252791,525,9.5891102382395e-05,1.88423618903942,0,NaN
206993057,54,b_2,blue,blue,Y,no_color_change,no_figure_change,not_first,update,correct,14,1020,3025,2650,0,0.0574712334607029,0.45656151121841,1125,-0.518051680621152,1375,0.087292866868818,0.357841621315684,0,NaN
206993057,55,b_2,red,blue,Y,color_change,no_figure_change,not_first,no_update,correct,38,1045,3050,2550,0,0.626763632245855,1.24459459059733,900,-0.340733050465617,1000,0.0697128314320365,0.243243763043466,2,137.5
206993057,56,b_2,blue,blue,Y,color_change,no_figure_change,not_first,update,correct,14,1022,3027,2475,0,1.2591014796535,1.87272126582833,2150,-0.125689262447788,775,1.40343021076865,1.42783449632498,0,NaN
206993057,57,b_2,blue,blue,X,no_color_change,figure_change,not_first,update,correct,21,1028,3033,2275,0,0.331811727317259,1.00809516842143,1950,-0.996204671726009,625,0.506736530540024,0.644148480254066,1,175
206993057,58,b_2,blue,blue,X,no_color_change,no_figure_change,not_first,update,correct,12,1019,3025,2050,0,-0.169356314442277,0.363099650096322,750,-1.65283497714019,1800,0.0502309557980035,-0.410709582429205,1,225
206993057,59,b_2,red,blue,Y,color_change,figure_change,not_first,no_update,correct,24,1030,3035,2300,0,-0.669274400839406,0.0847996982068744,1150,-2.72283584307469,1600,-0.332262669755167,-1.95635428895622,1,225
206993057,60,b_2,blue,blue,Y,color_change,no_figure_change,not_first,update,correct,11,1017,3023,2175,0,0.204966162788523,1.20347328952566,1725,-1.05910124396369,100,-0.493655385990019,0.741645758601415,0,NaN
206993057,61,b_2,blue,blue,X,no_color_change,figure_change,not_first,update,correct,21,1029,3034,2575,0,-1.11170886436649,0.125337661739051,1600,-3.0657663979699,575,-0.589162923962934,-0.863619240831885,0,NaN
206993057,62,b_2,red,blue,Y,color_change,figure_change,not_first,no_update,correct,9,1016,3022,2150,0,-0.214411993879602,0.353950040743997,275,-1.16016247494959,875,-0.0593885560755268,-0.443831967377141,2,237.5
206993057,64,b_3,red,blue,X,color_change,no_figure_change,not_first,no_update,correct,416,1423,3428,1975,0,1.97009141582025,2.81473148285786,500,0.101828359804957,1950,0.52581885991413,1.42135385598897,0,NaN
206993057,65,b_3,blue,blue,X,color_change,no_figure_change,not_first,update,correct,6,1013,3018,2450,0,0.517852770147886,0.915536281846778,450,-0.419795264379942,1100,0.39058044185409,0.808561766213964,1,150
206993057,66,b_3,red,blue,Y,color_change,figure_change,not_first,no_update,correct,16,1023,3029,2750,0,-0.139122189318465,0.26714462031229,1625,-1.3845796182253,2050,-0.143413134538143,-0.390948024413223,1,125
206993057,67,b_3,red,blue,X,no_color_change,figure_change,not_first,no_update,correct,21,1029,3034,2175,0,-0.119062462514829,0.269477970470262,650,-0.891955061585896,1300,-0.673059647622372,-0.299116312031636,1,125
206993057,68,b_3,red,blue,Y,no_color_change,figure_change,not_first,no_update,correct,22,1029,3034,2300,0,0.0542670699062761,0.401360199946917,1525,-0.867606712505954,1150,0.266513337221605,0.106886615455631,0,NaN
206993057,69,b_3,blue,blue,X,color_change,figure_change,not_first,update,correct,22,1030,3035,2475,0,0.327649045527614,0.685509509081693,2075,-0.848412510179068,1425,0.0586374091068643,0.128198412960129,2,212.5
206993057,70,b_3,red,blue,Y,color_change,figure_change,not_first,no_update,correct,20,1027,3032,1925,0,0.0258578453643211,0.45257403954434,850,-1.03686249913617,1075,0.117290800064126,-0.195993422344516,2,137.5
206993057,71,b_3,red,blue,Y,no_color_change,no_figure_change,not_first,no_update,correct,130,1138,3142,2250,0,0.0585654453770934,0.479215784156262,100,-1.04916852394191,725,-0.132473557941346,0.22071734490879,1,125
206993057,72,b_3,blue,blue,Y,color_change,no_figure_change,not_first,update,correct,31,1038,3043,2400,0,-0.40820038651388,0.032650920361222,975,-1.22387412155753,475,-0.847405653604052,-0.14408437225482,0,NaN
206993057,73,b_3,blue,blue,X,no_color_change,figure_change,not_first,update,correct,22,1029,3034,1625,0,-0.219676152327062,0.425684576251263,725,-1.72302726408414,975,-0.0233095288041323,-0.0499432824908551,0,NaN
206993057,74,b_3,red,blue,Y,color_change,figure_change,not_first,no_update,correct,142,1150,3155,2000,0,0.918818427933388,1.54601228908615,125,-0.567803180907243,850,0.777125466482919,0.207748073311564,1,125
206993057,75,b_3,red,blue,X,no_color_change,figure_change,not_first,no_update,correct,20,1028,3033,2300,0,0.79394781692133,1.61714750520352,1750,-0.419291836092434,1975,-0.32962566443965,0.366431865904112,0,NaN
206993057,76,b_3,blue,blue,X,color_change,no_figure_change,not_first,update,correct,21,1028,3035,1875,0,-0.639168514073242,0.0278164106161072,1800,-1.99059540343195,1075,-0.400321379671107,-0.494406532958681,0,NaN
206993057,77,b_3,red,blue,Y,color_change,figure_change,not_first,no_update,correct,18,1025,3031,2250,0,-0.332722147954083,0.32995329237279,675,-1.64088055304318,1825,-0.970010418925204,-0.996100789698428,0,NaN
206993057,78,b_3,blue,blue,Y,color_change,no_figure_change,not_first,update,correct,21,1029,3035,2575,0,0.784136584847486,1.25989721235253,2025,-0.71010557684279,75,-0.71010557684279,0.829322189879763,1,150
206993057,79,b_3,blue,blue,X,no_color_change,figure_change,not_first,update,correct,127,1135,3141,2900,0,-0.197219881382396,0.164309403932317,2125,-1.27716560170657,750,-0.0312764812270737,-0.16265528241622,2,187.5
206993057,80,b_3,blue,blue,Y,no_color_change,figure_change,not_first,update,correct,4,1012,3016,2800,0,-0.24938587873016,0.831591612636147,1625,-1.50144689925391,2175,-0.055449029952649,-0.0852152263171992,0,NaN
206993057,81,b_3,blue,blue,X,no_color_change,figure_change,not_first,update,correct,16,1023,3028,2250,0,-0.11831209478808,0.655343766457216,825,-1.44014851205593,675,0.237378423947739,-1.25578987680048,0,NaN
206993057,82,b_3,red,blue,Y,color_change,figure_change,not_first,no_update,correct,186,1194,3198,2275,0,-0.402297226732413,0.303886894375163,1325,-1.59424551358452,1525,-0.504139479850499,-0.536063226018655,2,125
206993057,83,b_3,blue,blue,Y,color_change,no_figure_change,not_first,update,correct,185,1191,3197,850,0,0.65880983026208,1.30311213582622,200,-1.04894477803635,75,-1.04894477803635,1.04416620476763,0,NaN
206993057,84,b_3,red,blue,X,color_change,figure_change,not_first,no_update,correct,143,1151,3156,2125,0,-0.164435660550454,0.240574794027154,875,-1.47510880979953,2125,-0.582953975083669,-0.357250292850993,1,175
206993057,86,b_0,blue,red,X,color_change,figure_change,not_first,no_update,correct,47,551,1554,3325,0,0.0906913710333685,0.401416136423307,600,-0.193739981438529,100,0.0168049156925233,-0.107342098191947,0,NaN
206993057,87,b_0,red,red,X,color_change,no_figure_change,not_first,update,correct,6,509,1512,3200,0,0.0795061188897004,0.422336378593076,225,-0.138682506820609,1850,0.0743156043463938,-0.0189065290197376,3,175
206993057,88,b_0,blue,red,X,color_change,no_figure_change,not_first,no_update,correct,11,513,1516,3400,0,0.160287425990345,0.360382735528819,1400,-0.0196976306143937,1575,0.142494178140311,0.11901683990701,0,NaN
206993057,89,b_0,red,red,X,color_change,no_figure_change,not_first,update,correct,4,508,1510,2350,0,-0.110335426126545,0.204943258566878,850,-0.640640464091908,2000,0.0429192592413421,-0.12322006656144,1,250
206993057,90,b_0,blue,red,X,color_change,no_figure_change,not_first,no_update,correct,12,516,1519,3025,0,0.00847610148644368,0.435105877060338,1325,-0.715195796194258,400,-0.0970338046858346,0.166674717791084,2,212.5
206993057,91,b_0,blue,red,Y,no_color_change,figure_change,not_first,no_update,correct,3,506,1510,2900,0,-0.293249565443403,0.214484423253931,1500,-1.18490237936426,1050,-0.00584136632013044,-0.335275248555016,1,250
206993057,92,b_0,red,red,X,color_change,figure_change,not_first,update,correct,8,511,1513,3075,0,0.0536902999612247,0.468196298307481,175,-0.881742659182166,1300,-0.0824184024977104,0.0994151003949986,2,212.5
206993057,93,b_0,red,red,Y,no_color_change,figure_change,not_first,update,correct,12,515,1517,2275,0,-0.12847201134221,0.315194053531092,575,-1.0328590456117,1850,-0.876356775598352,-0.264068114110853,1,225
206993057,94,b_0,blue,red,Y,color_change,no_figure_change,not_first,no_update,correct,80,584,1587,3050,0,0.368058937679163,0.753072781635323,1625,-0.185605219586418,1550,-0.0413929925284215,0.403949259711243,1,300
206993057,96,b_1,red,red,X,no_color_change,figure_change,not_first,update,correct,10,513,1516,1425,0,-0.6749778977553,0.0272091003010184,1325,-2.11662827566328,725,-0.190775348189872,-0.0612903962727784,0,NaN
206993057,97,b_1,blue,red,Y,color_change,figure_change,not_first,no_update,correct,11,515,1518,2000,0,-0.127943917165198,0.323608497765152,1300,-0.572222162542034,1925,0.0355196625074968,-0.157708899718326,1,275
206993057,98,b_1,red,red,X,color_change,figure_change,not_first,update,correct,24,528,1531,1600,0,0.890241325231016,1.45268627369243,575,-0.104521301596864,75,1.02429277379887,1.2393205799663,1,125
206993057,99,b_1,blue,red,Y,color_change,figure_change,not_first,no_update,correct,13,516,1519,1125,0,-0.314517004232453,0.342562972336082,275,-1.22858876742466,525,-0.110154903861831,-0.810959043773525,0,NaN
206993057,100,b_1,blue,red,Y,no_color_change,no_figure_change,not_first,no_update,correct,59,563,1565,1500,0,-0.192724843359217,0.267168593087885,425,-0.978696554616015,950,-0.182273003778628,-0.204951249492076,1,150
206993057,101,b_1,red,red,X,color_change,figure_change,not_first,update,correct,2,505,0,1825,0,-0.165903759987034,0.230346409773027,550,-0.434962040406765,1625,-0.00444295441038656,-0.163318529207699,0,NaN
206993057,102,b_1,blue,red,Y,color_change,figure_change,not_first,no_update,correct,648,1153,2157,1625,0,0.0811146523172414,0.577288409117907,825,-0.742133205038526,1425,-0.0673475175732696,-0.0676831364316082,0,NaN
206993057,103,b_1,blue,red,Y,no_color_change,no_figure_change,not_first,no_update,correct,2,506,0,1875,0,-0.173164644878004,0.0917358212792044,275,-0.511722867863911,975,-0.273401514742744,-0.0516533404833429,2,125
206993057,104,b_1,blue,red,X,no_color_change,figure_change,not_first,no_update,correct,570,1074,2076,2425,0,-1.16301360073804,0.355995717594822,1025,-2.56915436965642,1500,-1.67656802497984,-1.74044748101695,0,NaN
206993057,105,b_1,blue,red,X,no_color_change,no_figure_change,not_first,no_update,correct,11,515,1517,2775,0,-0.515223368751179,0.675496879807926,1425,-1.90002625723173,725,-0.693316643000664,-0.249708421529082,1,125
206993057,106,b_1,blue,red,Y,no_color_change,figure_change,not_first,no_update,correct,7,510,1513,1525,0,-0.404932602006371,0.289806884175341,950,-1.47558826531144,450,-0.0669639531637399,-0.110178876637428,0,NaN
206993057,108,b_2,red,red,Y,no_color_change,figure_change,not_first,update,correct,61,566,1568,1825,0,1.0458145246531,2.20110034593701,1850,0.0714548531253176,975,1.11265642464429,2.20110034593701,0,NaN
206993057,109,b_2,blue,red,Y,color_change,no_figure_change,not_first,no_update,correct,7,510,1513,2175,0,1.01139885848462,2.13210669777284,275,-0.346334689029791,1425,0.108596673448117,-0.148599244991994,0,NaN
206993057,110,b_2,blue,red,X,no_color_change,figure_change,not_first,no_update,correct,11,514,1517,2275,0,0.522119243159144,1.47231997690524,1875,-1.00332458607791,975,-0.910909536156825,0.6925734869572,0,NaN
206993057,111,b_2,blue,red,X,no_color_change,no_figure_change,not_first,no_update,correct,61,564,1567,2225,0,0.728873989984949,1.54648375367286,50,-0.65034943820813,625,1.54648375367286,1.18472657900989,0,NaN
206993057,113,b_3,blue,red,Y,color_change,no_figure_change,not_first,no_update,correct,9,513,1515,2275,0,0.880218026976672,1.79799013337161,1500,-0.380839504037074,1100,1.29930845543172,0.051325712550203,0,NaN
206993057,114,b_3,blue,red,X,no_color_change,figure_change,not_first,no_update,correct,102,607,1609,2500,0,-0.238395541597158,0.496683946640264,1525,-1.57908672848289,1825,-0.582242782741,0.296335470062545,0,NaN
206993057,115,b_3,red,red,X,color_change,no_figure_change,not_first,update,correct,10,513,1516,2000,0,-0.221120936574598,0.608133380384259,1050,-1.52020959162007,1975,-0.782351531562763,-0.287553443269353,1,200
206993057,116,b_3,red,red,Y,no_color_change,figure_change,not_first,update,correct,5,509,1512,2500,0,-0.0127258207965746,1.33700964051841,1300,-1.53651107902509,175,0.437958637356216,0.488597130339345,0,NaN
206993057,117,b_3,blue,red,X,color_change,figure_change,not_first,no_update,correct,11,515,1518,2800,0,1.07285026640955,1.98149373963082,875,-0.374278954449075,2175,1.4315742493179,0.121006580281445,2,200
206993057,118,b_3,red,red,X,color_change,no_figure_change,not_first,update,correct,11,514,1517,1525,0,-0.262723280699571,0.899202830740969,625,-2.42746727496117,1475,-0.710089594992393,-2.06359250512059,1,125
207280074,2,b_0,red,red,Y,no_color_change,figure_change,not_first,update,correct,21,1031,3037,2200,0,-0.256068855771611,1.15708009841787,1675,-1.63411874289062,475,0,0.0387888206815718,0,NaN
207280074,3,b_0,red,red,Y,no_color_change,no_figure_change,not_first,update,correct,9,1015,3019,2100,0,-1.29656911197399,-0.0702748078397613,75,-3.03179328563894,1750,-0.113732653233004,-1.0498122486318,0,NaN
207280074,4,b_0,red,red,Y,no_color_change,no_figure_change,not_first,update,correct,14,1020,0,1125,0,-0.380072941481517,0.243826846053913,900,-1.42341403795369,1125,-0.593724356070396,-1.42341403795369,0,NaN
207280074,5,b_0,blue,red,Y,color_change,no_figure_change,not_first,no_update,correct,228,1235,3239,1875,0,-0.430074829893738,0.400897626097809,600,-1.73540066355917,1400,0,0.00650470964104549,0,NaN
207280074,6,b_0,blue,red,X,no_color_change,figure_change,not_first,no_update,correct,15,1023,3027,1575,0,-0.712865585902817,1.48311370435249,1500,-4.06827686543572,1375,-0.0299695517817494,-2.54210437763116,0,NaN
207280074,7,b_0,red,red,X,color_change,no_figure_change,not_first,update,correct,44,1051,3057,1775,0,1.61400964889156,2.59078993445371,1525,-0.135601247609034,175,-0.135601247609034,1.76429274809976,1,150
207280074,8,b_0,red,red,X,no_color_change,no_figure_change,not_first,update,correct,17,1026,3032,3050,0,0.619557915876179,1.77857916559359,1150,-1.04095307353786,225,-0.961260403886524,0.984485808862527,0,NaN
207280074,9,b_0,red,red,X,no_color_change,no_figure_change,not_first,update,correct,23,1029,3034,2875,0,-0.638624932542782,0.802593376077955,1350,-2.43886705345089,2325,-0.126542541544511,-1.85212628135094,0,NaN
207280074,10,b_0,blue,red,X,color_change,no_figure_change,not_first,no_update,correct,11,1018,3024,2850,0,0.412430923403639,1.28462029481531,600,-0.887394038576247,2475,0.217648382713264,-0.887394038576247,1,275
207280074,11,b_0,red,red,X,color_change,no_figure_change,not_first,update,correct,23,1029,3034,2150,0,0.423081244665044,1.40102666305414,1750,-0.87534236795296,2150,0.111936874497746,-0.87534236795296,0,NaN
207280074,12,b_0,blue,red,X,color_change,no_figure_change,not_first,no_update,correct,56,1062,3067,2400,0,0.276102555790415,1.6584615213019,1700,-1.97104673981913,600,0.700672956303537,0.465465848178862,0,NaN
207280074,13,b_0,red,red,X,color_change,no_figure_change,not_first,update,correct,18,1024,3028,1600,0,0.986815956478381,2.19595804986166,1575,-0.121274923921087,100,0.109742033821319,0.757738813890623,0,NaN
207280074,15,b_1,red,red,Y,no_color_change,figure_change,not_first,update,correct,9,1017,3022,2800,0,0.359792210127148,2.02663606822389,2400,-1.33466266223783,825,0.33261812796389,1.74370115193547,0,NaN
207280074,16,b_1,red,red,X,no_color_change,figure_change,not_first,update,correct,22,1028,3034,2975,0,0.217898000029525,1.32253117922631,2175,-1.46651272759988,1025,-0.0565470770635672,0.431824926538362,1,250
207280074,17,b_1,blue,red,X,color_change,no_figure_change,not_first,no_update,correct,9,1016,3021,2725,0,-0.405900966986724,0.597914506452665,875,-1.62302482092614,2100,-0.290477186976503,-1.03408920814976,0,NaN
207280074,18,b_1,red,red,Y,color_change,figure_change,not_first,update,correct,62,1069,3074,2850,0,0.724113976889589,2.07548124982291,1850,-0.663879445327807,375,0.0753029882984835,0.410634737462319,0,NaN
207280074,20,b_2,blue,red,X,color_change,figure_change,not_first,no_update,correct,17,1025,3030,2600,0,0.361449131595122,1.55953406608624,500,-0.98432618408606,1950,0.0476879019696279,0.246939529195027,0,NaN
207280074,21,b_2,red,red,X,color_change,no_figure_change,not_first,update,correct,130,1136,3141,2500,0,-0.558033151905629,0.841821164894812,1650,-2.13434288614525,1000,-0.321643924581758,-1.08816210117809,0,NaN
207280074,22,b_2,blue,red,Y,color_change,figure_change,not_first,no_update,correct,122,1133,3138,3050,0,-0.0139681859560513,1.25397233773357,2275,-1.17659422734101,825,-0.24386675224803,0.65258599239274,0,NaN
207280074,23,b_2,blue,red,X,no_color_change,figure_change,not_first,no_update,correct,6,1013,3018,2325,0,-0.320915636539126,0.896532557029004,2225,-1.8245511012162,1750,-0.0459719356226036,-1.60223369379126,0,NaN
207280074,24,b_2,blue,red,X,no_color_change,no_figure_change,not_first,no_update,correct,38,1045,3050,1900,0,1.28496369811731,4.0068612326899,1600,-0.481907200155001,275,0.659489763974954,2.66142389804052,0,NaN
207280074,25,b_2,red,red,X,color_change,no_figure_change,not_first,update,correct,3,1010,3015,2575,0,-0.97406336969497,0.210545080160466,125,-3.02975806973899,2375,0.108265504638996,-2.6907549507164,1,150
207280074,27,b_3,blue,red,Y,color_change,no_figure_change,not_first,no_update,correct,12,1021,3026,2600,0,-0.169389170638065,1.2488244386925,325,-1.99495055009512,2250,-1.68727379345426,-1.66181364160771,1,125
207280074,28,b_3,red,red,X,color_change,figure_change,not_first,update,correct,68,1076,3081,2200,0,1.3980500237566,2.92264984472938,2050,-1.67717752634269,75,-0.0950565543863209,2.08605639126387,1,150
207280074,29,b_3,red,red,X,no_color_change,no_figure_change,not_first,update,correct,5,1012,3018,2975,0,-0.48659454913948,0.587099927847,800,-1.62773375183193,1325,-0.000119718582350548,-1.13796503143591,0,NaN
207280074,30,b_3,red,red,Y,no_color_change,figure_change,not_first,update,correct,67,1073,3079,2850,0,0.0600954706914668,1.63531592871413,1875,-1.62565862973785,925,-0.406205149915349,-0.451778023596784,0,NaN
207280074,32,b_0,blue,blue,Y,no_color_change,figure_change,not_first,update,correct,22,1029,3035,2550,0,-0.226812555147954,0.677447551327534,1325,-1.88820148083256,2475,-0.196697630801921,-1.88820148083256,0,NaN
207280074,33,b_0,blue,blue,X,no_color_change,figure_change,not_first,update,correct,9,1015,3021,2975,0,0.850361090435816,2.25473987379577,1925,-0.390841265180364,175,0.0503217107813395,0.578200846558944,0,NaN
207280074,34,b_0,red,blue,Y,color_change,figure_change,not_first,no_update,correct,21,1027,3032,3150,0,0.307443020361035,1.12411758207736,1900,-0.546076360294885,2300,0.081049480251309,-0.475921271037475,0,NaN
207280074,35,b_0,blue,blue,X,color_change,figure_change,not_first,update,correct,6,1013,3019,2750,0,0.537253833746564,1.63148493407891,1725,-0.35524494002814,2450,0.0226268120642502,-0.325714356381676,0,NaN
207280074,36,b_0,red,blue,X,color_change,no_figure_change,not_first,no_update,correct,14,1020,3026,2800,0,-0.380762915135549,0.541287617000864,1375,-2.43491634023332,2450,0.26409919266527,-2.32984333112367,1,150
207280074,37,b_0,blue,blue,X,color_change,no_figure_change,not_first,update,correct,6,1012,3017,2775,0,0.854014950433882,2.90133993707098,1725,-1.31347247316178,2450,0.152760911079276,-1.03724179748499,0,NaN
207280074,38,b_0,blue,blue,X,no_color_change,no_figure_change,not_first,update,correct,15,1022,3028,2775,0,0.468359250855364,1.85974836442725,1825,-1.18724918117021,325,0.0620541318516915,-0.214016919048631,1,150
207280074,39,b_0,blue,blue,Y,no_color_change,figure_change,not_first,update,correct,4,1011,3015,3075,0,-0.856581570245295,-0.0140868865232457,525,-1.68029020948381,2075,-1.17499797957634,-1.12531476790087,0,NaN
207280074,40,b_0,red,blue,X,color_change,figure_change,not_first,no_update,correct,16,1022,3027,2700,0,0.136111476805242,1.21466473652848,1575,-1.01277930049137,2425,-0.152441661526342,-0.928776761875414,1,125
207280074,42,b_1,red,blue,Y,color_change,figure_change,not_first,no_update,correct,49,1059,3065,1475,0,0.716813997259543,2.42761350670994,225,-0.717154214473793,850,0.97155620196867,0.870154562717771,0,NaN
207280074,43,b_1,red,blue,X,no_color_change,figure_change,not_first,no_update,correct,10,1017,3023,3075,0,-1.05281417172394,0.00331221411169813,100,-2.40921675122207,1825,-0.0913053721393376,-0.382021996280542,0,NaN
207280074,44,b_1,red,blue,Y,no_color_change,figure_change,not_first,no_update,correct,22,1028,3034,3025,0,0.699320624970251,2.05600702709389,2450,-0.786511179848867,1425,0.244824500906834,1.62825253235544,0,NaN
207280074,45,b_1,blue,blue,X,color_change,figure_change,not_first,update,correct,8,1016,3020,2450,0,1.38608734731223,3.16220672801279,1800,-0.209068550978143,2125,0.191310294596147,0.996218229932879,0,NaN
207280074,46,b_1,red,blue,X,color_change,no_figure_change,not_first,no_update,correct,20,1027,3033,2850,0,-0.467210318950255,0.556731314124082,1000,-1.74374105812959,375,-0.47863489223742,-0.385374116586357,0,NaN
207280074,47,b_1,red,blue,X,no_color_change,no_figure_change,not_first,no_update,correct,6,1012,3017,2900,0,-0.645545806779617,0.748320952079048,1050,-2.15940397605063,2300,-0.147293762485269,-1.56671718102727,0,NaN
207280074,48,b_1,blue,blue,Y,color_change,figure_change,not_first,update,correct,15,1022,3027,3125,0,0.130465564749834,1.5021090527521,2025,-0.953159446480805,1075,-0.177782094790537,0.440524476855834,0,NaN
207280074,49,b_1,red,blue,X,color_change,figure_change,not_first,no_update,correct,5,1012,3016,3025,0,-0.764815648049364,0.479433016119757,1125,-3.32917424419766,2475,-0.257594483024224,-3.32917424419766,0,NaN
207280074,51,b_2,blue,blue,X,no_color_change,no_figure_change,not_first,update,correct,113,1120,3126,2675,0,-1.49086812939909,0.679961641556895,950,-4.4828623161156,2275,-0.134204530814944,-3.12708927718997,0,NaN
207280074,52,b_2,blue,blue,X,no_color_change,no_figure_change,not_first,update,correct,9,1017,3022,2225,0,0.728428621270758,3.28795114567496,1700,-1.22579856468708,1850,-0.479672453284458,1.71401094351254,0,NaN
207280074,53,b_2,red,blue,Y,color_change,figure_change,not_first,no_update,correct,18,1027,3032,3000,0,0.485479618940583,1.49173344228172,1300,-0.988276897303627,2250,-0.199570876778334,-0.416066413883778,0,NaN
207280074,54,b_2,blue,blue,Y,color_change,no_figure_change,not_first,update,correct,7,1013,3019,2850,0,-0.0174506122018394,1.41914407518319,1825,-0.835755423389052,300,-0.0957748658804242,-0.431785020344246,0,NaN
207280074,55,b_2,blue,blue,Y,no_color_change,no_figure_change,not_first,update,correct,15,1022,3026,3150,0,0.315134328467963,1.62565862973785,2275,-0.798522944278037,600,-0.220162472942627,0.801595721225034,0,NaN
207280074,56,b_2,red,blue,X,color_change,figure_change,not_first,no_update,correct,5,1012,3018,2850,0,-0.77934231712002,0.284291726888392,1650,-2.68209530659305,2325,-0.0371127605286644,-1.85791267949788,0,NaN
207280074,58,b_3,blue,blue,Y,no_color_change,figure_change,not_first,update,correct,7,1014,3019,2500,0,-0.998360133821191,0.586820584488182,100,-2.5405480360606,2375,-0.269446622676927,-1.23094646372815,0,NaN
207280074,59,b_3,blue,blue,Y,no_color_change,no_figure_change,not_first,update,correct,17,1025,3031,2950,0,-0.00784726802883361,1.39180833221315,975,-1.74190537320021,2025,0.12047680003875,-0.323040641375847,0,NaN
207280074,60,b_3,blue,blue,X,no_color_change,figure_change,not_first,update,correct,5,1011,3017,3150,0,-0.0925420569508976,0.776215381766721,1800,-1.30908279180893,2275,0.162737459608487,-1.09486634178972,2,175
207280074,61,b_3,blue,blue,Y,no_color_change,figure_change,not_first,update,correct,15,1023,3028,3000,0,-0.436280982479389,0.572374542217885,350,-1.78524350001111,825,-0.655978018892672,-0.447867216573334,0,NaN
207280074,62,b_3,red,blue,X,color_change,figure_change,not_first,no_update,correct,3,1009,3014,2650,0,0.372003709129933,1.34591620897878,550,-1.34032934180242,1675,-0.0509203036930922,0.333575876622694,1,150
207280074,63,b_3,red,blue,Y,no_color_change,figure_change,not_first,no_update,correct,14,1021,3026,2500,0,0.152406641804974,1.34866973637284,1575,-1.23633379993393,1750,-0.0460916542049541,-0.633031957275487,1,125
207280074,64,b_3,blue,blue,X,color_change,figure_change,not_first,update,correct,23,1030,3035,2650,0,0.230152052065833,1.38897499243085,1500,-1.200498037617,675,0.0885917509393924,0.990751081338871,1,125
207280074,65,b_3,red,blue,X,color_change,no_figure_change,not_first,no_update,correct,116,1125,3129,3175,0,0.363055966717418,1.40529662582464,2150,-0.829929119047992,675,0.307038257534993,0.488890784125449,1,125
207280074,66,b_3,blue,blue,X,color_change,no_figure_change,not_first,update,correct,16,1023,3027,2650,0,0.384841491056716,1.85240562470975,2400,-1.46591413468813,150,0.010136173305676,0.00530752381754018,0,NaN
207280074,67,b_3,blue,blue,X,no_color_change,no_figure_change,not_first,update,correct,11,1018,3024,2525,0,-0.612081205364144,0.283932571141341,1475,-2.4770572812207,325,-0.398383535868448,0.0824861032395153,1,175
207280074,68,b_3,blue,blue,X,no_color_change,no_figure_change,not_first,update,correct,39,1045,3051,2175,0,3.44032950772098,6.344366553084,2150,0.465984628702381,75,2.00365010041259,2.68931832772819,1,125
207280074,70,b_0,red,blue,X,color_change,figure_change,not_first,no_update,correct,7,1014,3020,1750,0,0.189068896693251,0.970837890474566,600,-1.29439731237393,1525,0.121833610638723,-1.17356135658813,1,200
207280074,71,b_0,red,blue,Y,no_color_change,figure_change,not_first,no_update,correct,65,1072,3077,1825,0,-0.0568969395873313,1.20436893844633,1075,-1.59908110445603,1850,-0.0901081863158325,-1.59908110445603,0,NaN
207280074,72,b_0,red,blue,Y,no_color_change,no_figure_change,not_first,no_update,correct,5,1011,3016,2350,0,0.581904056466191,1.93776497392568,675,-1.55255048211579,1550,0.467780407437638,-0.664517944433677,0,NaN
207280074,74,b_1,red,blue,Y,color_change,no_figure_change,not_first,no_update,correct,22,1028,3034,2300,0,-0.849616028635767,1.20484781277574,225,-2.25797227551923,1800,0.268369155435772,-0.818555853724692,0,NaN
207280074,75,b_1,blue,blue,X,color_change,figure_change,not_first,update,correct,30,1038,3044,2175,0,0.364846555942858,1.54504811762183,1150,-0.850041840882881,1475,0.6697855620571,0.618186853064021,0,NaN
207280074,76,b_1,blue,blue,Y,no_color_change,figure_change,not_first,update,correct,20,1027,3032,2525,0,0.733929882627177,1.39436232863663,1400,-0.0862771916806154,50,-0.0862771916806154,0.540250055953826,0,NaN
207280074,78,b_2,red,blue,X,color_change,figure_change,not_first,no_update,correct,12,1019,3025,3050,0,-0.0276843113594666,1.1410378083829,700,-2.1339837303982,2400,-0.190192921160876,-1.49815833953454,0,NaN
207280074,79,b_2,red,blue,Y,no_color_change,figure_change,not_first,no_update,correct,22,1028,3034,2825,0,-0.316029774599218,1.03436855150858,525,-2.05205631387632,2450,-0.152481567720459,-1.32017671377341,0,NaN
207280074,80,b_2,red,blue,X,no_color_change,figure_change,not_first,no_update,correct,10,1018,3024,2575,0,-0.581810728302269,0.465625472955329,1250,-1.7186400620301,1800,-0.316336400764218,-0.55082519739479,1,150
207280074,81,b_2,red,blue,Y,no_color_change,figure_change,not_first,no_update,correct,21,1029,3033,1750,0,0.314865655088288,2.17385001832093,350,-1.72598280174759,1700,0.26334097497705,-1.05220662027881,1,125
207280074,82,b_2,red,blue,Y,no_color_change,no_figure_change,not_first,no_update,correct,22,1029,3034,2525,0,2.41023191593568,4.17474659133946,2000,-0.0334413906699149,175,0.306918538952643,2.65152716189954,0,NaN
207280074,83,b_2,red,blue,Y,no_color_change,no_figure_change,not_first,no_update,correct,21,1028,3034,2750,0,-0.879423794316563,0.530034070259914,875,-2.55335792437211,1425,0.235566263871727,-0.545677298353717,0,NaN
207280074,84,b_2,blue,blue,Y,color_change,no_figure_change,not_first,update,correct,43,1050,0,375,0,-0.857954669087764,0.635506141310731,300,-2.20421863204385,175,-1.15771859752374,0.11504955763886,0,NaN
207280074,85,b_2,blue,blue,X,no_color_change,figure_change,not_first,update,correct,885,1891,3896,2000,0,0.520693027872014,1.27013434635089,625,-0.435616014979465,1200,-0.145458077555894,0.15272100488516,0,NaN
207280074,86,b_2,blue,blue,Y,no_color_change,figure_change,not_first,update,correct,4,1011,3017,2925,0,0.497880672365424,1.539301625669,1100,-1.14067865263585,1675,0.0161221024232047,0.610484957599471,0,NaN
207280074,87,b_2,blue,blue,X,no_color_change,figure_change,not_first,update,correct,14,1022,3026,2950,0,1.31163267419178,2.51389069839055,2050,-0.120556612426984,150,0.0901480925099492,0.973471699286278,0,NaN
207280074,88,b_2,blue,blue,Y,no_color_change,figure_change,not_first,update,correct,176,1182,3187,2700,0,-1.28183337652413,-0.119638769962296,75,-2.5028765888143,2350,-0.155993312802741,-1.89650196920887,0,NaN
207280074,90,b_3,blue,blue,X,no_color_change,figure_change,not_first,update,correct,17,1025,3030,2750,0,0.160057636511723,0.993185359179999,1700,-0.983089092068437,1750,-0.191988699896134,-0.461634853543645,0,NaN
207280074,91,b_3,red,blue,X,color_change,no_figure_change,not_first,no_update,correct,5,1012,3018,1700,0,-0.574879829610309,1.03173474269687,1375,-2.41847498825718,925,0.793814013372249,-0.665515599286598,0,NaN
207280074,92,b_3,red,blue,Y,no_color_change,figure_change,not_first,no_update,correct,15,1021,0,2325,0,1.90484453259418,3.40635282361964,1900,0.217408945548563,50,0.217408945548563,2.31843015960625,0,NaN
207280074,93,b_3,red,blue,Y,no_color_change,no_figure_change,not_first,no_update,correct,525,1533,3538,2300,0,1.41810081325127,3.14297194244847,850,-1.40785062224812,2125,2.50048221716729,-0.528597447271708,0,NaN
207280074,94,b_3,blue,blue,X,color_change,figure_change,not_first,update,correct,21,1030,3033,3200,0,0.406502410340913,1.182739781235,2050,-0.156472187132143,1000,0.147692824426437,0.429630085861936,0,NaN
207280074,95,b_3,blue,blue,Y,no_color_change,figure_change,not_first,update,correct,13,1021,3025,2525,0,-0.0410844448584463,0.571895667888483,1450,-1.17707310167041,425,0.104155166644961,-0.793454857625198,1,175
207280074,96,b_3,red,blue,Y,color_change,no_figure_change,not_first,no_update,correct,22,1029,3033,1975,0,-0.276130152478952,0.902518486146531,225,-1.62777365802604,1725,0.38230133963936,-0.94386130325158,0,NaN
207280074,97,b_3,red,blue,Y,no_color_change,no_figure_change,not_first,no_update,correct,11,1019,3024,2550,0,-0.567888760234302,0.77976703304312,2400,-1.80627406431068,1775,-0.162817271996721,0.602703249746686,0,NaN
207280074,98,b_3,blue,blue,X,color_change,figure_change,not_first,update,correct,21,1028,3034,2375,0,-0.682810103686435,0.40480843312126,1500,-1.83033749936314,1000,0.000558686717635815,-0.88128839087637,0,NaN
207280074,100,b_0,blue,blue,X,no_color_change,no_figure_change,not_first,update,correct,16,1024,3028,2725,0,-1.69187970122625,0.123310139821046,125,-3.07648822304981,2400,-0.451937648373252,-1.91876962552607,0,NaN
207280074,101,b_0,red,blue,Y,color_change,figure_change,not_first,no_update,correct,15,1023,3027,2325,0,-0.578511514134649,0.924027924775509,300,-2.05596712089977,1800,-0.672738620421746,-0.933046724645916,0,NaN
207280074,102,b_0,red,blue,Y,no_color_change,no_figure_change,not_first,no_update,correct,5,1012,3018,2725,0,-0.0227978992581767,1.2042891260581,1450,-1.54325233888657,1950,-1.08720435251928,-0.00834039457042024,1,125
207280074,103,b_0,blue,blue,Y,color_change,no_figure_change,not_first,update,correct,16,1022,3027,2975,0,-0.070391675979675,0.455409487261417,1625,-0.912854190422793,650,-0.182331400919858,0.195660069754883,2,162.5
207280074,105,b_1,blue,blue,Y,no_color_change,no_figure_change,not_first,update,correct,24,1031,3038,2425,0,0.735084566317917,1.80599472095187,1600,-0.479672453284458,775,0.0917842464687398,1.30185977067378,0,NaN
207280074,106,b_1,red,blue,Y,color_change,no_figure_change,not_first,no_update,correct,37,1044,3050,2525,0,0.0380293813751646,0.739022808849823,775,-0.969321455098126,2400,-0.167286765737807,-0.19861312811953,0,NaN
207280074,107,b_1,blue,blue,X,color_change,figure_change,not_first,update,correct,22,1029,3034,2700,0,0.365517527364728,1.74797111470598,1675,-1.03065727545571,2150,0.363146366463275,-0.291993622352943,0,NaN
207280074,108,b_1,red,blue,Y,color_change,figure_change,not_first,no_update,correct,11,1017,3023,2200,0,0.114587654909254,1.22388306736947,1025,-1.83468727452188,1925,0.107906348891945,-1.17831019368804,1,150
207280074,109,b_1,red,blue,X,no_color_change,figure_change,not_first,no_update,correct,22,1028,3033,2675,0,0.866792262260395,2.50407377463781,900,-0.61567276283466,350,-0.21605213494859,1.57589560567415,0,NaN
207280074,110,b_1,blue,blue,Y,color_change,figure_change,not_first,update,correct,9,1015,3021,2725,0,-0.0828969741564939,1.30768607501484,1725,-0.988276897303627,875,-0.0974110198392147,0.708374851768087,0,NaN
207280074,111,b_1,red,blue,X,color_change,figure_change,not_first,no_update,correct,56,1062,3067,2350,0,-0.801980622903773,0.809297616689584,100,-2.02519944523569,1850,-0.258073357353626,-2.0022533836185,0,NaN
207280074,112,b_1,red,blue,Y,no_color_change,figure_change,not_first,no_update,correct,22,1030,3035,2975,0,0.410846891820838,2.72651090064509,2250,-1.51651518882828,1150,-0.0601785407281998,2.47793521749127,0,NaN
207280074,113,b_1,red,blue,X,no_color_change,figure_change,not_first,no_update,correct,15,1022,3027,2650,0,-1.60953937775708,0.197495754684258,2400,-3.7026563149372,975,-0.136997964403123,0.0333216720875642,0,NaN
207280074,114,b_1,red,blue,X,no_color_change,no_figure_change,not_first,no_update,correct,22,1029,3034,2875,0,-1.2469185022339,-0.0205915961642911,150,-2.41695855288074,1100,-0.0277348049112061,-1.25508971116884,0,NaN
207280074,115,b_1,blue,blue,Y,color_change,figure_change,not_first,update,correct,63,1071,3076,2750,0,-1.44724414393238,0.946295581092708,1850,-3.97573440127876,900,-1.02926055866163,-0.111857062109512,0,NaN
207280074,116,b_1,red,blue,X,color_change,figure_change,not_first,no_update,correct,3,1011,3016,2750,0,NaN,NaN,25,NaN,25,NaN,NaN,0,NaN
207280074,117,b_1,red,blue,Y,no_color_change,figure_change,not_first,no_update,correct,15,1022,3028,2475,0,-0.974808963995255,0.941865993545738,425,-3.15622079889526,1200,-1.56216787489795,-2.20170454181448,0,NaN
207280074,118,b_1,red,blue,Y,no_color_change,no_figure_change,not_first,no_update,correct,30,1037,3043,2100,0,0.588341770602018,3.48564643132981,2125,-1.82239616673389,1600,-0.161699898561449,3.48564643132981,0,NaN
207280074,120,b_2,blue,blue,X,no_color_change,figure_change,not_first,update,correct,22,1029,3034,2275,0,-0.923995473584689,0.469336749008193,1400,-3.32139253634488,2250,0.0561081089282818,-1.38614165264856,0,NaN
207280074,121,b_2,blue,blue,Y,no_color_change,figure_change,not_first,update,correct,13,1021,3026,3025,0,1.87348953300351,3.95953248646732,2100,-0.501820391019306,450,0.504214762666316,3.49147273567086,0,NaN
207280074,122,b_2,red,blue,X,color_change,figure_change,not_first,no_update,correct,21,1028,3034,3100,0,-0.527209689010992,0.848764842671143,950,-3.11100708096088,2300,-0.145497983750011,-2.28478353708088,1,175
207280074,123,b_2,blue,blue,X,color_change,no_figure_change,not_first,update,correct,12,1018,3024,2825,0,-0.313418769327002,1.4414516376945,1925,-2.00005854294207,1225,-0.0997654852921086,-0.833560582712625,0,NaN
207280074,124,b_2,red,blue,Y,color_change,figure_change,not_first,no_update,correct,88,1095,3099,3100,0,-0.228607519471087,0.761928964272891,325,-1.17771160077628,2225,-0.0322042986522926,-0.708135414603386,1,225
207280074,125,b_2,red,blue,X,no_color_change,figure_change,not_first,no_update,correct,10,1016,3022,2975,0,-0.213960317405955,0.747802171555529,625,-2.00217357123027,2325,0.360951525786849,-1.02419247200879,1,250
207280074,126,b_2,blue,blue,Y,color_change,figure_change,not_first,update,correct,25,1034,3038,3150,0,0.312748508148263,1.43263236879468,50,-0.678325487598104,300,1.43263236879468,0.348381074640043,2,150
207280074,127,b_2,red,blue,X,color_change,figure_change,not_first,no_update,correct,7,1014,3021,2825,0,0.449890623497482,1.46124510997646,2100,-0.852037150588724,1475,0.529315758765811,0.460796823467191,1,150
207280074,129,b_3,blue,blue,Y,no_color_change,no_figure_change,not_first,update,correct,156,1163,3170,3025,0,-0.517258183654619,0.557888593753471,1500,-2.13039217292769,750,0.223793936607258,-1.26358973051573,1,150
207280074,130,b_3,red,blue,Y,color_change,no_figure_change,not_first,no_update,correct,10,1017,3021,3325,0,0.0100897518145627,0.715278623350301,1975,-1.09019731707805,825,0.164972206479031,-0.017838068770229,0,NaN
207280074,131,b_3,blue,blue,X,color_change,figure_change,not_first,update,correct,22,1030,3036,3100,0,0.896452744640771,2.32377758961791,475,-0.551224259335958,575,0.0587020115458767,0.454252207632029,0,NaN
207280074,132,b_3,red,blue,Y,color_change,figure_change,not_first,no_update,correct,8,1017,3023,3250,0,0.116665962103625,0.999849693597514,1350,-0.653783178216243,1700,-7.98123882312929e-05,0.142465112997133,1,150
207280074,133,b_3,red,blue,X,no_color_change,figure_change,not_first,no_update,correct,19,1027,3031,3375,0,0.248875794021819,1.15153313743563,1175,-0.914011470052182,2475,0.16636892327312,-0.914011470052182,0,NaN
207280074,135,b_0,blue,red,X,color_change,no_figure_change,not_first,no_update,correct,23,528,1530,2325,0,0.468123080191468,2.19184771186762,2275,-1.45334368354132,1050,-0.00658452202927917,1.94139643759032,1,200
207280074,136,b_0,red,red,X,color_change,no_figure_change,not_first,update,correct,12,515,1518,2850,0,-0.371821891623064,0.276150863288557,800,-1.42840231221829,1925,-0.659609482557305,-1.30615823786865,1,175
207280074,137,b_0,red,red,Y,no_color_change,figure_change,not_first,update,correct,68,572,1575,3025,0,0.252367586007042,1.76289603130567,2075,-1.35102420182573,850,0.163375958714357,0.358397529363371,0,NaN
207280074,138,b_0,blue,red,X,color_change,figure_change,not_first,no_update,correct,6,509,1511,3325,0,-1.27638673245205,-0.0131291378644414,100,-2.89551363272992,1275,-0.0131291378644414,-0.51403168641906,0,NaN
207280074,139,b_0,red,red,Y,color_change,figure_change,not_first,update,correct,12,515,1518,1900,0,1.04695265477443,1.9304621404023,575,0.144141173150038,1800,0.59152951539397,0.415822542697508,0,NaN
207280074,141,b_1,blue,red,Y,color_change,figure_change,not_first,no_update,correct,6,510,1512,2325,0,0.201898665807986,1.68328317404257,1100,-1.7283771733946,275,-0.471252246325804,0.619703288440461,0,NaN
207280074,142,b_1,blue,red,X,no_color_change,figure_change,not_first,no_update,correct,12,515,1518,3125,0,0.144512409343608,0.939351903316377,1600,-1.44612066240617,2325,-0.00917842464687399,-0.172385890541625,1,225
207280074,143,b_1,blue,red,Y,no_color_change,figure_change,not_first,no_update,correct,5,508,1511,2600,0,-0.368845418909829,0.634867642204862,1050,-2.41224962197495,2300,0.131171660062064,-2.20118576129097,1,150
207280074,144,b_1,blue,red,X,no_color_change,figure_change,not_first,no_update,correct,61,564,1567,2350,0,1.4195866518573,2.41879423781011,900,-0.5982337560056,100,-0.250371461889076,1.63423846147297,1,250
207280074,145,b_1,red,red,X,color_change,no_figure_change,not_first,update,correct,6,510,1513,3225,0,-0.0921401445672921,1.29056631773872,1425,-1.88460992336205,375,0.108105879862529,-0.619902819411046,1,125
207280074,146,b_1,red,red,X,no_color_change,no_figure_change,not_first,update,correct,10,513,0,1925,0,-0.428331034227133,0.295385648852875,550,-2.00045760488324,150,-0.254721237047812,-0.841501915341877,0,NaN
207280074,147,b_1,blue,red,Y,color_change,figure_change,not_first,no_update,correct,691,1194,2197,2850,0,1.02979596676603,2.59426177334187,1725,-0.934443441440005,1300,-0.560801745924,0.947891828857382,0,NaN
207280074,148,b_1,red,red,Y,color_change,no_figure_change,not_first,update,correct,8,511,1513,2450,0,-0.751342828268243,0.778011160501979,650,-2.70611883545139,1400,0.124746762809253,-2.63983464702331,0,NaN
207280074,149,b_1,blue,red,Y,color_change,no_figure_change,not_first,no_update,correct,2,505,0,975,0,-0.383980550281276,1.14566692690046,900,-1.96099037890169,750,-0.087634002280588,-1.68212589441318,1,150
207280074,150,b_1,blue,red,Y,no_color_change,no_figure_change,not_first,no_update,correct,16,520,1523,1525,0,1.01571905679131,2.68401080391065,575,-1.1692115814294,150,-1.1692115814294,-0.973312074509811,1,125
207280074,152,b_2,red,red,X,no_color_change,no_figure_change,not_first,update,correct,5,508,1511,3075,0,0.325502202023157,1.4611253913941,1300,-1.28637616735645,1975,0.198852565284231,0.113852371815354,0,NaN
207280074,153,b_2,blue,red,Y,color_change,figure_change,not_first,no_update,correct,11,515,1518,1825,0,1.26201373365553,2.29193244671267,1775,-0.397066631462592,350,-0.0861973792923818,2.29193244671267,1,175
207280074,154,b_2,blue,red,Y,no_color_change,no_figure_change,not_first,no_update,correct,3,506,1509,2775,0,0.256418471915965,1.74693355365894,525,-1.60115622655011,2075,-0.662562540921951,0.261026415718273,0,NaN
207280074,155,b_2,blue,red,X,no_color_change,figure_change,not_first,no_update,correct,11,515,1517,3100,0,-1.39538848791392,0.195979319307818,50,-2.46229198939747,2250,0.195979319307818,-1.21885488691075,0,NaN
207280074,156,b_2,red,red,X,color_change,no_figure_change,not_first,update,correct,4,508,1511,2325,0,-0.0586052824014413,1.27368599762729,825,-1.24387607062201,1500,0.69760017935654,-0.414306107321068,0,NaN
207280074,157,b_2,red,red,X,no_color_change,no_figure_change,not_first,update,correct,59,563,1565,2250,0,-0.471184405795805,1.34882936114931,300,-2.72575268295687,1825,-0.0649672840222211,-0.109821846209553,1,125
207280074,158,b_2,red,red,Y,no_color_change,figure_change,not_first,update,correct,3,507,1509,2400,0,0.274209593220581,1.98916415194818,625,-1.49839777669924,925,0.0123709201762214,0.813288236101269,1,225
207280074,159,b_2,red,red,X,no_color_change,figure_change,not_first,update,correct,8,511,1514,2750,0,-0.141291952331308,1.50765601373434,1175,-2.07352584631118,850,0.592527170246891,-0.692532092703701,0,NaN
207280074,160,b_2,red,red,Y,no_color_change,figure_change,not_first,update,correct,70,573,1575,1925,0,1.89429169813738,3.25850037441673,1050,-0.117164585927052,700,0.359235559439825,0.193066167137288,0,NaN
207280074,161,b_2,red,red,Y,no_color_change,no_figure_change,not_first,update,correct,43,546,1549,2675,0,0.677360798731628,2.78265891576749,1175,-2.18550262700305,200,-2.18550262700305,1.33306641447315,1,175
207280074,163,b_3,blue,red,Y,color_change,no_figure_change,not_first,no_update,correct,7,510,0,2375,0,0.0520024408080266,0.850121653271115,900,-1.31131753867947,2025,0.09633355259806,-0.151364194285187,0,NaN
207280074,164,b_3,red,red,X,color_change,figure_change,not_first,update,correct,344,848,82,1250,0,0.571803639318377,1.99331439613633,250,-1.04689909646127,900,1.88476954813851,0.544360393947861,0,NaN
207280074,165,b_3,red,red,X,no_color_change,no_figure_change,not_first,update,correct,913,1416,2418,2950,0,1.39334105583208,4.16357285698674,125,-1.01541310930308,950,3.47136001383598,1.16206837268248,0,NaN
207280074,166,b_3,red,red,Y,no_color_change,figure_change,not_first,update,correct,11,514,1516,2850,0,-0.425887454942264,0.678325487598104,1950,-1.93952084646682,975,0.0482066824931469,-0.613557734546468,0,NaN
207280074,167,b_3,blue,red,X,color_change,figure_change,not_first,no_update,correct,11,514,1518,2525,0,-2.33608376403021,0.680640046856881,50,-5.0308541737281,2075,0.680640046856881,-2.19567870650284,0,NaN
207280074,168,b_3,red,red,X,color_change,no_figure_change,not_first,update,correct,5,508,1511,3175,0,1.14118766021387,2.2247304158199,1925,-0.386132334274577,2325,0.307916193805564,0.476320332978643,0,NaN
207280074,169,b_3,red,red,X,no_color_change,no_figure_change,not_first,update,correct,11,514,1516,3000,0,-1.72121543677185,0.125584792885706,75,-3.91719201450935,1100,0.101720888803832,-1.3694209573136,0,NaN
207280074,170,b_3,red,red,X,no_color_change,no_figure_change,not_first,update,correct,6,510,1513,2625,0,0.943236649151833,2.30861323585351,1775,-0.876619366164699,2425,1.29571421677979,-0.332538315575656,0,NaN
207280074,171,b_3,blue,red,Y,color_change,figure_change,not_first,no_update,correct,35,538,1540,2500,0,1.2069208988395,2.37765095167565,1050,-0.394073666903829,250,-0.0876340022805882,0.992826203432947,1,125
207280074,172,b_3,red,red,X,color_change,figure_change,not_first,update,correct,4,507,1509,3000,0,0.358294913435642,1.50953160485784,2400,-1.50765601373434,2450,-0.323439703317016,-1.35242091861982,1,200
207280074,173,b_3,blue,red,Y,color_change,figure_change,not_first,no_update,correct,44,548,1550,2200,0,1.10726401725517,2.87947134269495,2200,-0.89341987388789,1625,0.543721894841989,2.43268159336277,0,NaN
207280074,174,b_3,red,red,X,color_change,figure_change,not_first,update,correct,2,506,1509,1950,0,1.02713171669085,2.11031935728691,1650,-0.134683405144347,1575,0.072629273292655,1.65798264697249,0,NaN
207280074,175,b_3,red,red,Y,no_color_change,figure_change,not_first,update,correct,7,512,1514,2750,0,-1.98440187704821,-0.288322252494194,50,-3.77301093516519,675,-0.288322252494194,-2.5249048079668,1,175
207280074,176,b_3,blue,red,X,color_change,figure_change,not_first,no_update,correct,1,504,1508,2750,0,-0.958226718721519,0.427594869961977,175,-2.9847837889693,775,-0.0982091437215516,-1.69497568891881,1,125
207280074,178,b_0,blue,red,Y,color_change,figure_change,not_first,no_update,correct,23,1031,3036,2250,0,-0.773356324659328,0.165890048943718,375,-2.50147987202021,1450,-0.204279807684121,-0.418695788673921,0,NaN
207280074,179,b_0,red,red,Y,color_change,no_figure_change,not_first,update,correct,12,1019,3025,1625,0,-0.5185728866027,0.600747846234961,1100,-2.20118576129097,425,-0.257554576830107,-1.81736798627517,0,NaN
207280074,180,b_0,red,red,X,no_color_change,figure_change,not_first,update,correct,21,1029,3034,1975,0,1.18246964699791,2.14906827177437,1125,-0.255838610483083,1900,0.00303287075288017,0.147892355397022,0,NaN
207280074,181,b_0,red,red,X,no_color_change,no_figure_change,not_first,update,correct,21,1028,3034,2425,0,0.374666914441151,1.76393359235271,900,-1.52984385766331,2025,0.0394672259815582,-0.287564034805974,0,NaN
207280074,183,b_1,blue,red,Y,color_change,figure_change,not_first,no_update,correct,9,1017,3023,2250,0,-0.795504870203874,0.312744843293702,1550,-2.21567170975538,900,-0.161141211843814,-0.870952686600107,0,NaN
207280074,184,b_1,blue,red,Y,no_color_change,no_figure_change,not_first,no_update,correct,23,1029,3036,1175,0,-0.507564280394254,0.465146598625927,150,-1.64058354633755,750,0.208669489036974,-1.02594834454993,0,NaN
207280074,185,b_1,blue,red,X,no_color_change,figure_change,not_first,no_update,correct,309,1317,3323,1500,0,-0.0699981699856269,0.95970406231597,950,-1.84466382305108,1400,0.800957222119167,-1.61145202463225,1,225
207280074,186,b_1,blue,red,Y,no_color_change,figure_change,not_first,no_update,correct,22,1029,3034,1950,0,1.20100556254731,2.66002718124643,1275,-0.599630472799689,100,-0.381223872398205,1.17164585927052,0,NaN
207280074,187,b_1,blue,red,X,no_color_change,figure_change,not_first,no_update,correct,7,1014,3019,1750,0,-0.513061395813533,1.22998871506935,1700,-3.01180028238641,400,-0.16106139945558,1.11430065832462,0,NaN
207280074,188,b_1,red,red,X,color_change,no_figure_change,not_first,update,correct,18,1025,3030,2100,0,-0.307669155461031,0.863649853076725,600,-1.10931238406001,850,0.168044983426028,-0.709212881844541,0,NaN
207280074,190,b_2,blue,red,X,color_change,no_figure_change,not_first,no_update,correct,17,1023,3029,2175,0,0.504440115291917,1.37145617321356,1225,-0.535102156912753,1950,-0.368453890280815,-0.0830048837630343,0,NaN
207280074,191,b_2,blue,red,X,no_color_change,no_figure_change,not_first,no_update,correct,5,1012,3018,1050,0,-0.423648907481805,1.25504980497473,400,-1.98054441401894,350,-0.102119950745002,1.098378086872,0,NaN
207280074,192,b_2,blue,red,X,no_color_change,no_figure_change,not_first,no_update,correct,14,1021,3027,2200,0,0.220629783545323,1.34679414524935,2200,-1.29228228408574,600,0.294906774523473,1.03041783829101,0,NaN
207280074,193,b_2,red,red,X,color_change,no_figure_change,not_first,update,correct,4,1010,3016,2225,0,-0.59484445038254,0.272040525294521,1575,-2.04950231745284,1925,0.0705541511985791,-0.193624853854924,0,NaN
207280074,194,b_2,blue,red,X,color_change,no_figure_change,not_first,no_update,correct,22,1029,3036,2600,0,0.316827491275492,1.41619101681854,1200,-0.821708443059923,2000,-0.42667702749729,-0.00271362119994534,0,NaN
207280074,195,b_2,blue,red,Y,no_color_change,figure_change,not_first,no_update,correct,25,1032,3038,1725,0,0.123312453223604,1.07367615271367,900,-1.48123811322899,1625,-0.364543083257365,-1.41631073540089,0,NaN
207280074,197,b_3,blue,red,Y,color_change,figure_change,not_first,no_update,correct,26,1034,3039,2700,0,0.313754307122433,1.70120105520103,2075,-1.34499836651409,2200,0.0520775833224807,0.0721503989632529,0,NaN
207280074,198,b_3,blue,red,X,no_color_change,figure_change,not_first,no_update,correct,15,1021,3026,2525,0,0.0923066918468205,1.25832211289231,1325,-1.31287388025003,550,0.425958716003187,0.0327629853699284,0,NaN
207280074,199,b_3,red,red,Y,color_change,figure_change,not_first,update,correct,22,1030,3034,1875,0,0.274222962694398,2.20022801263216,1675,-1.48459023353481,725,-0.395470383697918,0.417817852403351,0,NaN
207280074,200,b_3,blue,red,X,color_change,figure_change,not_first,no_update,correct,113,1120,3126,2225,0,-0.53408908375756,0.760532247478802,1675,-2.54062784844884,2225,-0.369371732745503,-2.54062784844884,0,NaN
207280074,201,b_3,blue,red,X,no_color_change,no_figure_change,not_first,no_update,correct,22,1030,3036,2525,0,1.4503379654566,2.32206162327088,1125,-0.158188153479167,2125,0.207991083736988,2.25186662781936,0,NaN
207280074,202,b_3,blue,red,X,no_color_change,no_figure_change,not_first,no_update,correct,12,1018,3025,1875,0,-1.08614683837519,-0.0964931773745274,125,-2.02128863821224,600,-0.558686717635808,-1.56388384124498,1,125
207280074,203,b_3,red,red,Y,color_change,figure_change,not_first,update,correct,39,1046,3051,2300,0,0.449521788775563,1.87854418185629,1075,-0.930851883969489,1700,-0.374120569845407,1.59109986563266,0,NaN
207280074,204,b_3,red,red,X,no_color_change,figure_change,not_first,update,correct,22,1029,3033,2475,0,0.493688485952843,1.98114300693069,1825,-1.1779909441351,2450,0.136399371491371,-1.08042029951942,1,225
207280074,205,b_3,blue,red,X,color_change,no_figure_change,not_first,no_update,correct,132,1139,3145,1975,0,0.578037128839491,1.64433472858453,1375,-0.530991818918718,625,0.364702708033832,0.252805739730203,0,NaN
207280074,206,b_3,red,red,X,color_change,no_figure_change,not_first,update,correct,90,1098,3103,2150,0,0.324930082296121,1.25852164386289,2100,-0.60821030453481,1600,0.105911039186102,0.131051941479714,0,NaN
207280074,207,b_3,red,red,Y,no_color_change,figure_change,not_first,update,correct,20,1027,3034,2225,0,0.466728498096087,1.42572859721246,625,-0.844095817959472,775,-0.176465190384682,-0.627006121963844,1,175
207280074,208,b_3,red,red,X,no_color_change,figure_change,not_first,update,correct,6,1013,3018,2850,0,0.843892816885051,1.76999933385847,1850,-0.106788975456673,200,-0.106788975456673,0.221639002124948,1,175
207280074,209,b_3,red,red,Y,no_color_change,figure_change,not_first,update,correct,15,1023,3030,2900,0,-0.464072796239334,0.293270620564682,350,-2.65172669287013,2350,0.169601324996585,-2.56133916319548,1,125
207280074,210,b_3,red,red,Y,no_color_change,no_figure_change,not_first,update,correct,5,1012,3017,2275,0,0.235232542841804,1.65211643643732,1525,-1.38330831286626,2125,-0.0347183888816538,-1.03101643120277,1,150
207601006,2,b_0,blue,blue,Y,no_color_change,no_figure_change,not_first,update,correct,17,1024,3030,2325,0,0.324568236750248,1.74873048415447,350,-1.04105770300897,1950,0,-0.566331233332531,1,125
207601006,3,b_0,red,blue,X,color_change,figure_change,not_first,no_update,correct,61,1070,3074,1025,0,0.743498836773897,2.28410613689981,400,-0.865085991301698,800,0,1.80655877498761,0,NaN
207601006,4,b_0,red,blue,X,no_color_change,no_figure_change,not_first,no_update,correct,132,1138,3144,850,0,0.878620200341944,3.11645493146542,675,-2.03467987605339,750,1.91701897621959,2.03464275905029,0,NaN
207601006,5,b_0,blue,blue,X,color_change,no_figure_change,not_first,update,correct,28,1035,3041,1050,0,0.784294949646948,2.31109019815507,950,-0.34500254383444,450,0.480590956166576,1.13871253817071,1,275
207601006,6,b_0,red,blue,Y,color_change,figure_change,not_first,no_update,correct,18,1025,3031,3275,0,-2.3078291783188,0.0652516914535712,2150,-4.49902618001722,525,-2.15831661338664,-2.51397173711139,0,NaN
207601006,7,b_0,red,blue,X,no_color_change,figure_change,not_first,no_update,correct,5,1013,3017,3000,0,-0.492449474765524,0.740261509869183,1750,-1.4706870139163,2425,-0.840811471272895,-1.01307148266995,0,NaN
207601006,8,b_0,blue,blue,X,color_change,no_figure_change,not_first,update,correct,22,1028,3035,2800,0,0.361154080512775,1.80574220091936,1400,-0.829899072360864,2425,0.564809436205343,-0.502749807018556,1,150
207601006,9,b_0,red,blue,Y,color_change,figure_change,not_first,no_update,correct,5,1011,3017,2575,0,-0.838744563649168,2.04158363863039,2500,-2.9379592635472,500,-0.813604707999022,-0.113949199523586,1,225
207601006,10,b_0,blue,blue,Y,color_change,no_figure_change,not_first,update,correct,15,1022,3026,2175,0,0.564650609959511,3.28040073416759,1575,-1.76498773151321,500,-0.554305324327436,0.0762012073687041,0,NaN
207601006,11,b_0,blue,blue,Y,no_color_change,no_figure_change,not_first,update,correct,3,1011,3015,1850,0,-0.555217700390177,1.98616795299889,1025,-2.6126287313569,1600,-1.09157394423099,0.0891550414513527,0,NaN
207601006,12,b_0,red,blue,X,color_change,figure_change,not_first,no_update,correct,14,1021,3026,1625,0,-1.4592294590212,2.40662936413999,500,-4.51283370517122,1475,-0.53325998356852,-2.49712061770302,0,NaN
207601006,13,b_0,blue,blue,X,color_change,no_figure_change,not_first,update,correct,22,1030,3036,2400,0,-0.831009876005785,2.25032966407686,225,-2.91672833777277,400,1.23866862752479,-1.69483659565015,0,NaN
207601006,15,b_1,red,blue,Y,color_change,no_figure_change,not_first,no_update,correct,17,1023,3028,550,0,-0.746953175285599,0.456873191184305,200,-2.27315662098468,400,-0.0560837916873413,-0.408583970148414,0,NaN
207601006,16,b_1,red,blue,X,no_color_change,figure_change,not_first,no_update,correct,23,1032,3037,1600,0,1.39064129696065,3.7407629236435,150,-0.427439407724304,800,3.32171195862028,0.260561361777059,0,NaN
207601006,17,b_1,blue,blue,X,color_change,no_figure_change,not_first,update,correct,4,1010,3017,2550,0,-0.406662619399597,1.54640570024467,625,-2.10301227876444,1125,0.775299960797608,0.58741369109455,0,NaN
207601006,18,b_1,red,blue,X,color_change,no_figure_change,not_first,no_update,correct,15,1023,3029,2325,0,-1.44698155402745,0.989427951693884,1375,-3.48565776132245,1050,-2.76414033801985,-0.740929615925022,0,NaN
207601006,19,b_1,blue,blue,Y,color_change,figure_change,not_first,update,correct,20,1028,3032,1950,0,-1.11885398979304,0.718659414063735,1675,-2.7147004898878,1825,-1.0155954388809,0.274740056962079,0,NaN
207601006,20,b_1,blue,blue,Y,no_color_change,no_figure_change,not_first,update,correct,13,1020,3026,2400,0,-1.6855405445469,1.51797407586843,350,-3.34353675644434,2000,-1.87433442265213,-1.02706459283946,1,225
207601006,21,b_1,red,blue,Y,color_change,no_figure_change,not_first,no_update,correct,57,1065,3071,1925,0,-2.17114004957681,1.23681277736968,100,-4.5904082416547,1550,0.0299905385065351,-0.901237952323185,0,NaN
207601006,22,b_1,red,blue,Y,no_color_change,no_figure_change,not_first,no_update,correct,22,1028,3033,1250,0,-0.777206003263729,0.554490909342947,1075,-1.98598236798338,300,-1.44425970770757,-0.754625790069714,1,150
207601006,23,b_1,red,blue,Y,no_color_change,no_figure_change,not_first,no_update,correct,23,1029,3035,2025,0,-0.385006883190247,2.70902158841317,450,-2.32074061896163,1350,0.70110307159642,-0.587673510116265,0,NaN
207601006,24,b_1,red,blue,Y,no_color_change,no_figure_change,not_first,no_update,correct,10,1017,3022,2850,0,0.139206734076652,1.33988669498434,1750,-1.36315905592938,275,-1.19698623304108,0.419422135054241,1,200
207601006,25,b_1,red,blue,X,no_color_change,figure_change,not_first,no_update,correct,21,1029,3033,3325,0,-0.812109475001506,0.976993755654666,2425,-2.23422088473053,1475,-0.527878018118709,-0.711483460130654,1,250
207601006,26,b_1,blue,blue,X,color_change,no_figure_change,not_first,update,correct,8,1015,3020,2975,0,0.185669438498174,2.89679650710692,75,-1.26008513831473,2450,-0.758671543407847,-0.940099454571135,0,NaN
207601006,27,b_1,red,blue,Y,color_change,figure_change,not_first,no_update,correct,19,1026,3032,2900,0,1.58426340589402,4.50002833910098,950,-0.638709389381714,2125,0.351275317358702,2.68797624765425,0,NaN
207601006,28,b_1,red,blue,Y,no_color_change,no_figure_change,not_first,no_update,correct,6,1015,3020,2925,0,1.19955567577544,3.26577663494535,300,-0.114283252551507,425,0.0248312750753351,1.13370174275192,1,200
207601006,29,b_1,red,blue,Y,no_color_change,no_figure_change,not_first,no_update,correct,90,1096,3102,3250,0,0.362142229747323,2.01716065058918,1225,-0.635405976105623,2525,0.324217022097238,-0.538827534033842,0,NaN
207601006,30,b_1,red,blue,Y,no_color_change,no_figure_change,not_first,no_update,correct,3,1011,3015,2850,0,0.773816008457897,3.58372088351832,75,-0.845117043632744,2100,0.984936794318524,0.545248775570513,0,NaN
207601006,31,b_1,red,blue,X,no_color_change,figure_change,not_first,no_update,correct,16,1023,3028,3275,0,-0.619437295251394,2.23830375507176,250,-2.91223718039741,500,-1.81817639695858,-2.42593020575311,0,NaN
207601006,32,b_1,blue,blue,Y,color_change,figure_change,not_first,update,correct,3,1009,3014,2800,0,-3.42975664351312,-0.271882047723213,50,-5.46841095003595,650,-0.271882047723213,-3.02039612743706,0,NaN
207601006,33,b_1,red,blue,X,color_change,figure_change,not_first,no_update,correct,14,1022,3027,2675,0,1.01449593863704,3.59103293312944,1025,-1.20667377085074,200,0.631768509801613,0.127645373668277,0,NaN
207601006,35,b_2,blue,blue,X,no_color_change,figure_change,not_first,update,correct,14,1021,3027,3275,0,-0.304777537560771,0.939579816527703,1475,-1.38045557937498,850,0.908067480893982,-0.0046396253877703,0,NaN
207601006,36,b_2,red,blue,X,color_change,no_figure_change,not_first,no_update,correct,48,1055,3061,2125,0,0.817836930090836,3.41305690325466,300,-1.0900521471038,1625,0.917643667694335,-0.0936090818236102,0,NaN
207601006,37,b_2,blue,blue,X,color_change,no_figure_change,not_first,update,correct,20,1026,3032,3375,0,1.28313698059428,3.08416313876655,575,-0.237585936856831,1175,1.05783458841114,2.40213820676463,0,NaN
207601006,38,b_2,red,blue,Y,color_change,figure_change,not_first,no_update,correct,22,1029,3034,3450,0,-0.538609198721476,0.699172987435109,1975,-1.48185923185004,2275,0.236583777773073,-1.45309355444588,1,225
207601006,39,b_2,red,blue,X,no_color_change,figure_change,not_first,no_update,correct,10,1017,3021,2825,0,0.225345937948222,1.92833966216575,175,-0.893406264668634,1650,0.133435626152212,-0.153899467195863,1,175
207601006,40,b_2,red,blue,Y,no_color_change,figure_change,not_first,no_update,correct,23,1029,3034,2950,0,-0.896760986743131,1.51374273751479,1400,-2.89946893133027,2475,-1.44355448464863,-2.68734525860151,0,NaN
207601006,42,b_3,blue,blue,X,no_color_change,figure_change,not_first,update,correct,15,1024,3029,2325,0,0.173614782010284,2.00784428281054,1925,-1.54948641150215,2225,-0.292147931416985,-0.264792700130704,1,125
207601006,43,b_3,blue,blue,Y,no_color_change,figure_change,not_first,update,correct,19,1026,3032,2700,0,2.016130471807,3.84276044816819,2000,-0.379001718676004,2175,2.58096792771077,1.6905310232903,0,NaN
207601006,44,b_3,red,blue,X,color_change,figure_change,not_first,no_update,correct,22,1029,3034,2875,0,1.72226351369733,4.49316169352708,2300,-0.606046426651826,875,-0.141861185856399,3.83815793978353,0,NaN
207601006,46,b_4,red,blue,X,color_change,no_figure_change,not_first,no_update,correct,8,1014,3020,2550,0,1.52664817393653,4.13654152772167,1775,-0.965895771727124,2000,0.220066711392619,0.231981269388407,0,NaN
207601006,47,b_4,blue,blue,Y,color_change,figure_change,not_first,update,correct,15,1023,3028,2475,0,-1.48152442133227,1.1177785484211,1175,-3.48023867886954,900,0.0172965234455995,-2.84490693677012,0,NaN
207601006,48,b_4,blue,blue,X,no_color_change,figure_change,not_first,update,correct,20,1028,3033,2800,0,1.67097109043985,4.22747818532193,1950,-0.543875446455733,375,0.0133621211167723,0.570005816639644,0,NaN
207601006,49,b_4,red,blue,X,color_change,no_figure_change,not_first,no_update,correct,15,1022,3028,3275,0,0.724976946327032,2.90629845990107,750,-2.36082698231194,1350,-0.0261303701839103,0.906434332757487,0,NaN
207601006,50,b_4,blue,blue,X,color_change,no_figure_change,not_first,update,correct,5,1011,3016,2425,0,1.53746624223981,3.60276190610972,600,-0.625607087286655,100,-0.355914942746468,0.904801184620995,0,NaN
207601006,51,b_4,red,blue,Y,color_change,figure_change,not_first,no_update,correct,15,1023,3028,3050,0,0.749833693855477,1.68592851490564,1325,0.0116918559771757,50,0.0116918559771757,0.392735009823798,1,200
207601006,52,b_4,blue,blue,Y,color_change,no_figure_change,not_first,update,correct,21,1028,3033,2900,0,0.549858925691111,1.23491981021147,2175,-0.113206859461543,200,0.0239404670008836,0.825964670032037,0,NaN
207601006,53,b_4,blue,blue,Y,no_color_change,no_figure_change,not_first,update,correct,15,1021,3027,3075,0,0.12292278086181,1.43820963620192,1625,-0.817501993324748,425,-0.402051377602437,-0.0932379117925888,0,NaN
207601006,54,b_4,red,blue,Y,color_change,no_figure_change,not_first,no_update,correct,22,1029,3034,3025,0,-0.221099619366201,0.756741459246536,2325,-1.07943668421659,2100,-0.187700684687548,-0.250465536933276,2,187.5
207601006,55,b_4,blue,blue,X,color_change,figure_change,not_first,update,correct,12,1019,3024,3000,0,0.172483441200043,1.40061011205945,475,-1.04220833010513,625,-0.570822390707891,0.929677000100051,1,375
207601006,57,b_0,blue,red,Y,color_change,figure_change,not_first,no_update,correct,19,1028,3033,2675,0,-0.989873719623297,0.482112753293764,1175,-2.69669874338326,1075,0.0564178447152607,-0.527803784112505,0,NaN
207601006,58,b_0,blue,red,Y,no_color_change,no_figure_change,not_first,no_update,correct,12,1019,3024,3250,0,0.488784716547468,1.65749689052939,1900,-0.292556218451108,500,-0.12890735177375,0.542056713303728,0,NaN
207601006,59,b_0,red,red,X,color_change,figure_change,not_first,update,correct,21,1029,3035,3050,0,-1.14906490700652,0.204403336083516,1725,-2.61518980457094,2275,-0.0654372764690796,-1.63838163393179,0,NaN
207601006,60,b_0,blue,red,X,color_change,no_figure_change,not_first,no_update,correct,10,1016,3022,2900,0,0.350960186724521,1.62791463905699,2450,-0.297455662860592,2425,0.528063603134219,0.400888378171903,1,150
207601006,61,b_0,blue,red,Y,no_color_change,figure_change,not_first,no_update,correct,22,1028,3033,3175,0,1.3981261839891,3.01627614009273,1925,0.00115062709616653,150,0.129018702783057,1.81917855604234,0,NaN
207601006,62,b_0,blue,red,X,no_color_change,figure_change,not_first,no_update,correct,9,1016,3021,3275,0,0.0781924254174779,0.356620165805411,1000,-0.299200162006392,1700,-0.233800002540412,0.320728023805636,2,212.5
207601006,63,b_0,blue,red,X,no_color_change,no_figure_change,not_first,no_update,correct,20,1027,3033,3225,0,-0.414072919901284,0.660200134177856,625,-1.2163984256635,1025,0.0833647889674181,-0.110274616216473,1,125
207601006,64,b_0,blue,red,X,no_color_change,no_figure_change,not_first,no_update,correct,7,1014,3020,2650,0,0.405446127817534,2.63560415627712,1925,-1.03838527878561,600,1.82274178834015,0.105783458841114,0,NaN
207601006,65,b_0,blue,red,X,no_color_change,no_figure_change,not_first,no_update,correct,17,1025,3030,3075,0,0.328529326462552,1.09951698289485,575,-0.385088907184756,1125,-0.0404946503844403,0.463851187767508,1,125
207601006,66,b_0,blue,red,X,no_color_change,no_figure_change,not_first,no_update,correct,4,1012,3017,3000,0,0.216573892233051,0.831272401475643,2150,-0.624827630221512,1325,-0.102108875534001,-0.116695857753144,1,300
207601006,67,b_0,blue,red,X,no_color_change,no_figure_change,not_first,no_update,correct,15,1021,3026,2975,0,0.434673220515162,1.91137719174807,1000,-0.832868432609036,600,0.879969909545658,1.1420159514468,0,NaN
207601006,69,b_1,red,red,Y,no_color_change,figure_change,not_first,update,correct,7,1016,3022,2950,0,-0.0630206684533825,1.65820211358834,2450,-1.02138569136483,1050,-0.358179079935701,-0.117834112514944,0,NaN
207601006,70,b_1,red,red,X,no_color_change,figure_change,not_first,update,correct,20,1026,3032,2725,0,-1.57634711330593,0.594391687677753,900,-2.8877028413469,2550,-0.438945678685969,-2.14231918504962,0,NaN
207601006,71,b_1,blue,red,X,color_change,no_figure_change,not_first,no_update,correct,7,1014,3018,3225,0,-0.43141274651717,1.11900340952347,600,-2.05713566293019,525,-0.378333612620166,-0.721406072293294,2,212.5
207601006,72,b_1,red,red,Y,color_change,figure_change,not_first,update,correct,15,1022,3027,2925,0,-0.339277246105934,0.57375463395296,2575,-0.984491390281299,1625,-0.147057566290699,0.57375463395296,0,NaN
207601006,73,b_1,blue,red,Y,color_change,no_figure_change,not_first,no_update,correct,5,1012,3018,3450,0,0.204419347339754,0.8789677504619,1275,-0.615956666480099,625,-0.0565663127276692,0.071858518005753,1,200
207601006,75,b_2,red,red,Y,no_color_change,figure_change,not_first,update,correct,6,1014,3019,2875,0,-0.36311382188735,1.00100845666175,1750,-1.55854296025908,2450,0.0939802518546316,-1.47027872688217,0,NaN
207601006,76,b_2,red,red,Y,no_color_change,no_figure_change,not_first,update,correct,14,1020,3026,3100,0,-1.34354040411234,-0.196089127388633,2225,-1.95135220408908,1325,-1.75036363229096,-1.11205240712434,1,275
207601006,77,b_2,red,red,Y,no_color_change,no_figure_change,not_first,update,correct,4,1012,3018,2800,0,0.0887622198351883,1.31628028101137,1800,-1.12074790866927,675,0.352574412467277,1.05278667598925,1,225
207601006,78,b_2,blue,red,Y,color_change,no_figure_change,not_first,no_update,correct,15,1023,3027,2700,0,0.317171523513295,2.96264207061013,1750,-1.3097476884654,2475,-0.158823656274079,1.33461608054383,1,150
207601006,80,b_3,blue,red,X,color_change,figure_change,not_first,no_update,correct,15,1024,3029,3250,0,NaN,NaN,25,NaN,25,NaN,NaN,0,NaN
207601006,81,b_3,red,red,Y,color_change,figure_change,not_first,update,correct,3,1011,3017,2850,0,-0.651200898440429,0.608681733872079,2175,-1.9984165640226,1950,-0.144682078092162,-1.49188082268762,0,NaN
207601006,82,b_3,blue,red,Y,color_change,no_figure_change,not_first,no_update,correct,15,1022,3027,2125,0,1.03883333403735,2.88117024880092,1950,-0.0520009213461055,275,0.17025569322954,1.92763443910681,1,225
207601006,83,b_3,red,red,Y,color_change,no_figure_change,not_first,update,correct,22,1028,3033,2900,0,-1.17890734139284,1.29308215407253,1575,-2.58887384937152,550,0.400195527447329,-2.098855174417,0,NaN
207601006,84,b_3,red,red,Y,no_color_change,no_figure_change,not_first,update,correct,11,1019,3025,2775,0,0.797921318619617,3.00347077402249,2000,-1.34846072270093,2025,1.99340576860381,1.08214622544304,0,NaN
207601006,85,b_3,blue,red,X,color_change,figure_change,not_first,no_update,correct,18,1025,3030,2800,0,-0.44509436497437,1.87607892179793,2500,-1.82070035316953,1150,1.39730669878336,-1.28658667852966,0,NaN
207601006,86,b_3,blue,red,Y,no_color_change,figure_change,not_first,no_update,correct,6,1013,3018,2650,0,0.583546972712558,1.94522789857723,125,-0.618443505687941,2300,1.32890006206611,0.0708563589219975,1,300
207601006,87,b_3,red,red,Y,color_change,no_figure_change,not_first,update,correct,16,1024,3030,3075,0,-0.166571466779465,1.8306477100009,1175,-1.75303605651432,2550,0.075161931281844,-0.879079101471206,0,NaN
207601006,88,b_3,red,red,Y,no_color_change,no_figure_change,not_first,update,correct,4,1011,3016,3000,0,-0.137523409037976,1.01192085557378,1600,-1.09075737016274,100,-1.02094028732761,-0.412926659511365,0,NaN
207601006,89,b_3,red,red,X,no_color_change,figure_change,not_first,update,correct,16,1023,3029,2775,0,0.813116182737604,1.78762910340552,250,-0.0214907447961421,100,0.595134027739796,0.397289796347332,1,350
207601006,90,b_3,red,red,Y,no_color_change,figure_change,not_first,update,correct,2,1009,3014,2625,0,0.752500295803835,2.96780133404132,1775,-1.10861064865487,650,-0.138372187564797,-0.0211938087713248,0,NaN
207601006,91,b_3,red,red,Y,no_color_change,no_figure_change,not_first,update,correct,15,1021,3026,3300,0,0.682258004947868,2.59347635775619,1700,-0.497924596615277,1450,-0.239330436002632,0.46388830477061,1,375
207601006,92,b_3,red,red,Y,no_color_change,no_figure_change,not_first,update,correct,22,1030,3036,2800,0,0.0681893930814498,1.81316560153979,1175,-1.33149825228325,2075,0.340734088477693,-1.17074451184786,0,NaN
207601006,93,b_3,blue,red,X,color_change,figure_change,not_first,no_update,correct,13,1020,3024,2925,0,-0.803290635176998,0.187663567684446,1375,-1.8080434551117,175,-1.41864897556709,-0.400640931484555,2,162.5
207601006,94,b_3,blue,red,X,no_color_change,no_figure_change,not_first,no_update,correct,22,1031,3036,3075,0,0.24058198253207,1.29582881230209,2425,-0.826521425078569,2475,-0.198724434608885,-0.453990437276704,1,225
207601006,95,b_3,red,red,Y,color_change,figure_change,not_first,update,correct,11,1018,3023,2850,0,-0.766358038079677,0.785692721666209,2350,-1.64647314060806,1350,-0.0995849193230555,-0.888284118240538,0,NaN
207601006,96,b_3,red,red,Y,no_color_change,no_figure_change,not_first,update,correct,22,1028,3034,2625,0,0.098381527859734,3.02629773093031,125,-1.53063097392626,1200,0.876332443241648,1.08240604446476,1,125
207601006,97,b_3,red,red,X,no_color_change,figure_change,not_first,update,correct,9,1015,3020,1775,0,1.17155376707043,2.97975300904022,1150,0.0440578826822464,825,0.152328180731204,0.836357430900637,0,NaN
207601006,98,b_3,blue,red,Y,color_change,figure_change,not_first,no_update,correct,16,1023,3029,750,0,0.548823526938247,3.10561676655959,575,-1.37681811307097,725,-0.170998033291583,1.38843573504194,0,NaN
207601006,99,b_3,blue,red,Y,no_color_change,no_figure_change,not_first,no_update,correct,21,1028,0,1500,0,2.14645867454813,4.00707742090139,975,0.412444138471037,425,0.725860112665551,2.55331576039967,0,NaN
207601006,100,b_3,red,red,Y,color_change,no_figure_change,not_first,update,correct,527,1534,4,600,0,-0.261756175781681,1.16484290835462,300,-1.25381236479046,600,0.0879301803489819,-1.25381236479046,0,NaN
207601006,101,b_3,blue,red,X,color_change,figure_change,not_first,no_update,correct,769,1776,3782,475,0,-1.02191770174263,0.754700024075918,100,-2.1126255825679,425,0.0796159716541014,-1.3980861558485,0,NaN
207601006,102,b_3,red,red,Y,color_change,figure_change,not_first,update,correct,433,1440,0,575,0,1.51246051377126,2.71006086450003,400,-0.335203655015473,300,2.12873436191423,0.00764610263904175,0,NaN
207601006,103,b_3,red,red,Y,no_color_change,no_figure_change,not_first,update,correct,644,1652,120,1175,0,1.42564714443459,3.67569681720544,350,0.054005239513619,75,2.69669874338326,0.833165368633853,0,NaN
207601006,104,b_3,red,red,Y,no_color_change,no_figure_change,not_first,update,correct,578,1586,3590,1175,0,0.692529850771196,2.26098224396717,1175,-0.707747015151704,225,-0.505793401272932,2.26098224396717,0,NaN
207601006,105,b_3,red,red,X,no_color_change,figure_change,not_first,update,correct,424,1431,3435,1300,0,1.13851981526999,3.17350376523341,750,-0.185956185541747,475,1.72375074106672,0.489276334892478,0,NaN
207601006,107,b_4,blue,red,Y,color_change,figure_change,not_first,no_update,correct,22,1032,3036,2475,0,0.898214431550081,2.30322139349741,900,-1.02131145735863,2175,2.25734477766316,0.770363399385023,1,125
207601006,108,b_4,red,red,Y,color_change,no_figure_change,not_first,update,correct,21,1028,3034,2600,0,0.782637118969653,2.98068093411777,2550,-0.788031092861644,1475,-0.0847381180821974,1.71484266032221,0,NaN
207601006,109,b_4,blue,red,X,color_change,figure_change,not_first,no_update,correct,21,1028,3033,3225,0,-0.335155075408472,2.09299068792686,50,-2.43157199022463,1400,2.09299068792686,-1.67460782895948,0,NaN
208827162,2,b_0,red,blue,X,color_change,figure_change,not_first,no_update,correct,22,1030,3036,2975,0,0.830883642189927,1.71517190349326,700,0,25,0,0.810481335598409,0,NaN
208827162,3,b_0,red,blue,Y,no_color_change,figure_change,not_first,no_update,correct,11,1018,3022,3000,0,-0.0839051120082509,0.765191319435518,2225,-1.44880062300146,2325,0,-0.659074712028695,1,225
208827162,4,b_0,red,blue,X,no_color_change,figure_change,not_first,no_update,correct,22,1029,3035,3175,0,-1.8133027712952,0.479534290339254,1325,-3.37791536443505,150,-3.37791536443505,-2.02179431093248,1,125
208827162,5,b_0,red,blue,Y,no_color_change,figure_change,not_first,no_update,correct,9,1016,3021,2875,0,-0.638021228107941,0.578452484581115,275,-2.01123663829053,2075,-0.261332391276327,0.0629261284170476,1,175
208827162,7,b_1,red,blue,X,color_change,no_figure_change,not_first,no_update,correct,14,1021,3026,2725,0,-0.485898512395256,0.71480242728078,375,-1.53248217604415,2375,-0.311601309878316,-1.22666959008599,0,NaN
208827162,8,b_1,blue,blue,X,color_change,no_figure_change,not_first,update,correct,27,1036,3043,3025,0,0.675282701601558,1.68334891862649,1550,-0.872927569804457,1275,0.378186631654219,-0.247055538499152,0,NaN
208827162,9,b_1,blue,blue,Y,no_color_change,figure_change,not_first,update,correct,8,1016,3021,2475,0,1.16946777873447,2.54094986706721,400,-0.433074532037059,2425,0.172192041583541,-0.433074532037059,0,NaN
208827162,10,b_1,red,blue,Y,color_change,no_figure_change,not_first,no_update,correct,20,1028,3033,3000,0,0.835898857500419,2.07290304440371,2375,-0.849802667512015,50,-0.849802667512015,1.67633046579065,1,125
208827162,11,b_1,red,blue,Y,no_color_change,no_figure_change,not_first,no_update,correct,10,1017,3023,2875,0,0.313030682284119,1.93868263226535,2375,-0.904390634012981,1850,0.790325778736512,0.896742320025208,1,125
208827162,12,b_1,blue,blue,X,color_change,figure_change,not_first,update,correct,22,1029,3033,2525,0,0.809148191979705,3.65853350431584,1125,-2.0743427270367,2225,2.91760683592388,-0.654605697188782,0,NaN
208827162,13,b_1,red,blue,X,color_change,no_figure_change,not_first,no_update,correct,22,1030,3035,2250,0,-0.214928238693805,1.64372765283101,175,-2.09959715989045,300,-0.56777483838642,-0.756403256696626,1,125
208827162,14,b_1,blue,blue,X,color_change,no_figure_change,not_first,update,correct,20,1026,3031,3100,0,0.00481034584610883,2.06252533209089,2425,-1.81597968119092,2350,0.133920478256491,2.06252533209089,1,275
208827162,16,b_2,blue,blue,X,no_color_change,no_figure_change,not_first,update,correct,23,1030,3036,2350,0,0.744938364689402,2.27451859979904,2325,-0.909129589346581,300,0.0723740456960608,1.94840049003805,1,125
208827162,17,b_2,red,blue,X,color_change,no_figure_change,not_first,no_update,correct,23,1031,3036,1625,0,0.0437803489574598,1.23641744124688,750,-1.11269471497408,1525,-0.256983349989163,-0.278158682049427,0,NaN
208827162,18,b_2,red,blue,Y,no_color_change,figure_change,not_first,no_update,correct,21,1030,3035,2600,0,-0.505001801221579,0.515916270210503,1550,-1.24991446593118,2400,-0.0137669651779908,-1.14994650310277,0,NaN
208827162,19,b_2,red,blue,X,no_color_change,figure_change,not_first,no_update,correct,8,1016,3022,2475,0,0.660519021301355,1.26950014841752,1500,-0.352782231859539,125,-0.172551962241789,0.419427540411817,0,NaN
208827162,20,b_2,blue,blue,Y,color_change,figure_change,not_first,update,correct,19,1027,3031,2350,0,0.688328156947885,1.51508601089549,1275,-0.430795034534821,1700,0.352302337648542,0.125582316340409,0,NaN
208827162,21,b_2,red,blue,Y,color_change,no_figure_change,not_first,no_update,correct,6,1013,3018,2650,0,-0.0769686578490096,1.08774021600221,1575,-1.29013559949041,500,0.0819419365278236,0.583641340737525,0,NaN
208827162,22,b_2,red,blue,X,no_color_change,figure_change,not_first,no_update,correct,17,1025,3031,2550,0,-0.343826393605474,0.923676382617443,1650,-1.50710776963766,2250,-0.32464843373981,-0.91458838599668,0,NaN
208827162,23,b_2,red,blue,X,no_color_change,no_figure_change,not_first,no_update,correct,4,1010,3015,2575,0,-0.139297417951326,1.2245100661365,1800,-0.945601549382391,700,-0.344803990601706,-0.185449119162347,0,NaN
208827162,24,b_2,red,blue,X,no_color_change,no_figure_change,not_first,no_update,correct,16,1025,3031,2625,0,1.17341632935936,2.53690075966192,1600,-0.709793531453494,2425,0.989031975477665,-0.709793531453494,0,NaN
208827162,25,b_2,red,blue,X,no_color_change,no_figure_change,not_first,no_update,correct,31,1040,3045,2500,0,-0.000909487010555828,1.4524898097485,2425,-1.58934964004735,950,-0.0310731501620882,1.4524898097485,0,NaN
208827162,26,b_2,red,blue,X,no_color_change,no_figure_change,not_first,no_update,correct,12,1018,3024,2825,0,-0.739618286601933,0.264841617694247,100,-1.70245470690183,1650,0.264841617694247,-1.41177003611066,1,200
208827162,27,b_2,red,blue,Y,no_color_change,figure_change,not_first,no_update,correct,22,1028,3033,2150,0,0.22440076512853,1.89618200120388,2125,-1.42147664636279,1050,0.370778264771945,1.7636712121922,0,NaN
208827162,28,b_2,red,blue,Y,no_color_change,no_figure_change,not_first,no_update,correct,12,1019,3025,2675,0,-0.259715905512967,0.770350182203741,1425,-1.30753176463907,2425,-0.203565125627503,-1.30753176463907,0,NaN
208827162,30,b_3,red,blue,X,color_change,no_figure_change,not_first,no_update,correct,12,1021,3026,2800,0,-0.745999300169141,0.205574682636055,675,-1.56025605350563,2175,-0.10038787026304,-1.09640830518836,0,NaN
208827162,31,b_3,blue,blue,X,color_change,no_figure_change,not_first,update,correct,20,1027,3032,2900,0,0.412006051422211,2.78611582211056,775,-1.28695630034255,1900,0.408090039677001,-0.0453799963274513,0,NaN
208827162,32,b_3,blue,blue,X,no_color_change,no_figure_change,not_first,update,correct,22,1029,3034,1925,0,-0.785715873902086,1.38035571115794,1675,-3.55463640763488,1250,0.929225159432102,-2.55357708349409,0,NaN
208827162,33,b_3,blue,blue,Y,no_color_change,figure_change,not_first,update,correct,40,1049,0,1025,0,1.50779911723538,3.47890310246183,650,-1.54528935280015,1000,1.75365342053762,2.17431068986512,0,NaN
208827162,34,b_3,blue,blue,Y,no_color_change,no_figure_change,not_first,update,correct,654,1660,3666,1775,0,-0.390646313584216,1.88676407731306,1225,-2.5464386571055,675,0.154675902882133,-0.587390514260943,0,NaN
208827162,35,b_3,blue,blue,Y,no_color_change,no_figure_change,not_first,update,correct,23,1032,3039,3200,0,0.749135327605917,1.69432649870306,1575,-0.592909297687414,50,-0.592909297687414,0.74359607994063,1,150
208827162,36,b_3,red,blue,X,color_change,figure_change,not_first,no_update,correct,72,1079,3084,1650,0,1.48759025394266,4.49759853885678,1350,-1.66346330225828,1675,0.119073751103755,-1.66346330225828,0,NaN
208827162,49,b_1,red,red,X,no_color_change,no_figure_change,not_first,update,correct,25,1032,3038,2375,0,0.012518729703641,1.15915447327628,1450,-0.777338641651392,175,-0.135390154277671,-0.466127245819512,1,125
208827162,50,b_1,red,red,X,no_color_change,no_figure_change,not_first,update,correct,142,1149,3154,2775,0,0.181239422157803,0.929525093313975,100,-0.517625893337181,1450,0.248045320309334,0.35977069130719,2,162.5
208827162,51,b_1,blue,red,X,color_change,no_figure_change,not_first,no_update,correct,22,1030,3035,2700,0,-0.779107939123318,0.356351445053835,750,-1.83604525788826,1325,-0.613184828102059,-1.28980567222035,0,NaN
208827162,52,b_1,blue,red,Y,no_color_change,figure_change,not_first,no_update,correct,13,1022,3027,2550,0,-0.477544104060573,0.728329445353272,800,-1.40612003161087,2125,-0.723440523078735,-1.1247520570254,1,350
208827162,53,b_1,red,red,X,color_change,figure_change,not_first,update,correct,24,1031,3036,2825,0,-0.104637246020709,0.607036183523652,450,-1.29523447548226,2375,-0.0700645548056371,-1.06392546578146,1,175
208827162,55,b_2,blue,red,X,color_change,figure_change,not_first,no_update,correct,24,1032,0,1375,0,0.396164057557287,0.909429523228455,500,-0.171352226714296,250,0.0719241448732507,0.89548259772134,0,NaN
208827162,56,b_2,blue,red,Y,no_color_change,figure_change,not_first,no_update,correct,1638,2645,1115,100,0,-1.0400607265804,-0.545279797245912,100,-1.29187521600528,75,-1.28302716649001,-0.545279797245912,0,NaN
208827162,57,b_2,red,red,X,color_change,figure_change,not_first,update,correct,756,1763,3768,1800,0,-0.736558464662339,-0.241326801355369,325,-1.41643775714732,1725,-0.814410469450949,-1.26833040627821,0,NaN
208827162,58,b_2,blue,red,X,color_change,no_figure_change,not_first,no_update,correct,16,1024,3029,1650,0,0.382410246045328,1.60770559361801,1600,-0.232748692333789,300,-0.0954689546003157,1.57009388483108,0,NaN
208827162,60,b_3,blue,red,Y,color_change,figure_change,not_first,no_update,correct,18,1025,3030,3025,0,0.146589872885501,1.43902277845239,1625,-1.01923531738232,2400,-0.287096711729256,-0.664083607855982,0,NaN
208827162,61,b_3,blue,red,Y,no_color_change,no_figure_change,not_first,no_update,correct,9,1016,3022,2300,0,0.113327545283336,1.11752365047225,1550,-0.964407403775856,2250,-0.188118530711021,-0.611385224810818,0,NaN
208827162,62,b_3,blue,red,Y,no_color_change,no_figure_change,not_first,no_update,correct,20,1026,3032,3000,0,1.02306759758551,1.99066117399402,825,0.283587485311337,150,0.726979742884842,0.620803148701644,1,250
208827162,63,b_3,blue,red,X,no_color_change,figure_change,not_first,no_update,correct,21,1028,3034,3300,0,0.831574185841157,2.39035306497856,1475,-0.626291938739928,1275,0.866448997955991,0.660094487227065,1,125
208827162,64,b_3,red,red,X,color_change,no_figure_change,not_first,update,correct,17,1025,3030,2475,0,1.32935164211424,3.60844454604297,575,-0.668252688814022,1200,1.45287972379494,-0.175011420073152,1,225
208827162,65,b_3,red,red,X,no_color_change,no_figure_change,not_first,update,correct,5,1012,3016,2850,0,-0.107401480416411,1.60839544154632,2325,-1.91549774319653,2125,-0.836095689110399,0.362050188809428,0,NaN
208827162,66,b_3,blue,red,Y,color_change,figure_change,not_first,no_update,correct,17,1023,3029,2825,0,0.513871096053478,1.34373378418119,1750,-0.435593976644796,725,-0.0485592954753098,0.66624313180547,0,NaN
208827162,67,b_3,blue,red,X,no_color_change,figure_change,not_first,no_update,correct,3,1009,3015,1725,0,0.67148425585159,1.21104303484038,850,-0.0401311533946662,1525,0.361450321045681,0.263431928449442,0,NaN
208827162,68,b_3,red,red,X,color_change,no_figure_change,not_first,update,correct,50,1058,3063,2575,0,0.182141723252439,1.20222497871331,1400,-0.549178937710267,1875,0.0844613811355605,-0.00374917352341797,0,NaN
208827162,69,b_3,blue,red,Y,color_change,figure_change,not_first,no_update,correct,12,1019,3025,2925,0,-0.142344871163611,0.830216985025679,2325,-1.79081522850174,2425,-0.258123098740282,-1.79081522850174,0,NaN
208827162,70,b_3,blue,red,X,no_color_change,figure_change,not_first,no_update,correct,22,1028,3033,2800,0,0.613208729083271,2.68122894361942,2400,-1.28791608876455,2425,0.623322593309381,-1.28791608876455,1,350
208827162,71,b_3,red,red,Y,color_change,figure_change,not_first,update,correct,153,1161,3166,2850,0,0.109542414713846,1.74966429990871,1275,-1.06263575008941,1150,-0.0573173648260142,1.06263575008941,0,NaN
208827162,72,b_3,blue,red,Y,color_change,no_figure_change,not_first,no_update,correct,21,1028,3033,3225,0,0.308398578395936,2.27913758157989,500,-0.990051750676035,2225,-0.0719841316496252,-0.577672656488244,1,125
208827162,73,b_3,blue,red,X,no_color_change,figure_change,not_first,no_update,correct,135,1142,3147,2150,0,-1.18610300326752,-0.409979623132804,1700,-2.39245260215167,625,-2.30502187558557,-0.493451222458182,1,125
208827162,74,b_3,red,red,X,color_change,no_figure_change,not_first,update,correct,21,1027,3032,2225,0,-0.809849789424665,0.143008474877256,1175,-2.52097427053444,1950,0.00752834043502326,-1.72509971498327,0,NaN
208827162,76,b_0,blue,red,X,color_change,no_figure_change,not_first,no_update,correct,12,1020,3025,2625,0,0.38741147310859,1.82680729432656,1475,-1.16761260874511,375,-0.654605697188781,-0.759222635186236,0,NaN
208827162,77,b_0,blue,red,X,no_color_change,no_figure_change,not_first,no_update,correct,24,1032,3036,3100,0,0.70072178125133,1.57087371292395,1650,-0.267481035854733,2125,0.377736730831409,0.705444490166329,0,NaN
208827162,78,b_0,blue,red,Y,no_color_change,figure_change,not_first,no_update,correct,13,1020,3025,2475,0,0.837824058104694,1.99659986485511,2425,-0.0496690508382416,1950,1.06140602117373,1.99659986485511,0,NaN
208827162,80,b_1,blue,red,X,color_change,no_figure_change,not_first,no_update,correct,24,1032,3038,2875,0,-0.100590013202178,0.728629379235146,425,-0.973915307831244,2425,-0.400171785195542,-0.973915307831244,1,125
208827162,81,b_1,blue,red,X,no_color_change,no_figure_change,not_first,no_update,correct,12,1018,3025,3075,0,-1.13875928174001,0.308272043789521,525,-2.35769026524254,1200,-1.31847935132745,-1.54693898915045,2,125
208827162,82,b_1,blue,red,X,no_color_change,no_figure_change,not_first,no_update,correct,22,1029,3033,2675,0,0.336069041154396,1.43992258009801,250,-0.743716053493379,2425,0.300803690130872,-0.743716053493379,0,NaN
208827162,83,b_1,blue,red,X,no_color_change,no_figure_change,not_first,no_update,correct,10,1017,3024,2725,0,-0.42120027462614,1.15582520718748,800,-2.14344749342034,250,-0.968636471510272,-0.633100437858455,1,175
208827162,85,b_2,blue,red,Y,color_change,figure_change,not_first,no_update,correct,2,1010,3016,3150,0,-0.137868670407777,0.544679929482165,1650,-0.976764679709042,2375,-0.386974694393111,-0.565345373943245,0,NaN
208827162,86,b_2,blue,red,Y,no_color_change,no_figure_change,not_first,no_update,correct,114,1120,3125,2325,0,-0.446092640555633,1.16797252940336,1875,-1.77359902368221,825,-0.229359439468619,0.388054456367856,0,NaN
208827162,87,b_2,blue,red,Y,no_color_change,no_figure_change,not_first,no_update,correct,22,1030,3036,2925,0,-0.820093427212762,0.892633225843542,175,-2.52448349695236,575,0.0410009616520991,0.179000540702068,1,200
208827162,88,b_2,red,red,Y,color_change,no_figure_change,not_first,update,correct,12,1019,3024,2325,0,0.741489608812182,1.60197685647423,1600,-0.267391055690171,2350,0.66669303262828,-0.267391055690171,1,150
208827162,90,b_3,red,red,X,no_color_change,no_figure_change,not_first,update,correct,318,1324,3330,1100,0,-0.20919502092385,1.32753735456003,250,-1.3465531626708,1100,1.08687040774478,-0.994010877916764,0,NaN
208827162,91,b_3,red,red,Y,no_color_change,figure_change,not_first,update,correct,16,1025,3029,2600,0,0.312026716100773,1.12631171321114,1750,-0.416398208204895,2125,0.565135420225934,-0.15937286747227,1,125
208827162,92,b_3,blue,red,Y,color_change,no_figure_change,not_first,no_update,correct,206,1213,3218,2500,0,0.00805634903957141,1.55209785191867,1750,-1.18536869455202,850,-0.227709803118315,-0.776918734216769,0,NaN
208827162,93,b_3,blue,red,Y,no_color_change,no_figure_change,not_first,no_update,correct,16,1023,3029,2700,0,0.843050007148092,1.57891194095816,1450,0.0989953200971988,100,0.0989953200971988,1.24979449237843,1,150
208827162,94,b_3,red,red,X,color_change,figure_change,not_first,update,correct,21,1027,3033,2450,0,-1.02520587621836,0.599207909206757,275,-2.71224210700513,1275,0.0235748031152523,-2.23690689101211,0,NaN
208827162,95,b_3,red,red,Y,no_color_change,figure_change,not_first,update,correct,65,1072,3078,2850,0,-0.0784706704918291,1.11161495299934,300,-1.12697156775126,1050,0.0928895232162039,-0.498700065390967,0,NaN
208827162,96,b_3,blue,red,X,color_change,figure_change,not_first,no_update,correct,22,1030,3035,2475,0,-0.360987454331103,0.542160484874428,250,-1.57483284016468,2175,-0.0175761254777835,-0.425906112260284,0,NaN
208827162,97,b_3,red,red,Y,color_change,figure_change,not_first,update,correct,13,1021,3027,2825,0,-0.114279339245121,0.994010877916764,375,-1.10630612329018,525,0.179360461360317,-0.576142993690689,0,NaN
208827162,98,b_3,blue,red,Y,color_change,no_figure_change,not_first,no_update,correct,21,1029,3035,3025,0,0.238857970590198,2.81140024835249,325,-1.36271959890378,1425,0.184429343963978,0.152936286367267,0,NaN
208827162,100,b_0,blue,blue,Y,no_color_change,no_figure_change,not_first,update,correct,14,1021,3026,1775,0,1.02368701209666,1.74336568838937,725,0.176241148988833,75,0.18631892741978,0.256353488837228,0,NaN
208827162,101,b_0,blue,blue,X,no_color_change,figure_change,not_first,update,correct,10,1019,3025,3000,0,-0.386858157582758,0.848063050997149,2100,-1.37864608803126,2200,-0.0756733183966687,-1.24343589408272,1,175
208827162,102,b_0,red,blue,X,color_change,no_figure_change,not_first,no_update,correct,20,1026,3032,3000,0,0.965722426389195,3.32857624086687,425,-1.36403930798403,1975,-0.135480134442233,1.08228141935212,1,150
208827162,103,b_0,red,blue,X,no_color_change,no_figure_change,not_first,no_update,correct,8,1015,0,1475,0,0.0368576644839036,1.49094133340468,1025,-1.34574334118975,75,-1.34574334118975,0.296964536442892,0,NaN
208827162,104,b_0,blue,blue,X,color_change,no_figure_change,not_first,update,correct,1644,2651,4656,1425,0,-0.843346196054845,1.59771779535162,325,-2.61473360200808,1450,1.09901772996066,-2.61473360200808,0,NaN
208827162,105,b_0,red,blue,X,color_change,no_figure_change,not_first,no_update,correct,6,1013,3018,2000,0,NaN,NaN,25,NaN,25,NaN,NaN,0,NaN
208827162,107,b_1,red,blue,Y,color_change,no_figure_change,not_first,no_update,correct,19,1026,3032,1625,0,-2.20938139629655,0.467237001182443,750,-3.07624186604674,1500,0.288686361303185,-2.52592317958535,0,NaN
208827162,108,b_1,blue,blue,Y,color_change,no_figure_change,not_first,update,correct,66,1073,3079,2575,0,0.0970823489398932,0.897522148118079,200,-0.35932079048438,950,0.389764079494534,-0.174111618427531,0,NaN
208827162,109,b_1,blue,blue,Y,no_color_change,no_figure_change,not_first,update,correct,145,1152,3158,2875,0,-0.878593288925187,0.317030113140225,2350,-1.63068052896951,1000,-0.53988098737219,0.112182770167713,1,300
