participant_id,trial_id,block,border_color,dominant,figure,is_color_change,is_figure_change,is_first,is_update,is_correct,event_fixation,event_stimulus_on,event_stimulus_off,event_Trial_Offset,event_Trial_Onset,trial_mean,trial_max,trial_max_latency,trial_min,trial_min_latency,first_bin,last_bin,valid_blinks,blinks_mean
206993057,2,b_0,blue,blue,Y,no_color_change,figure_change,not_first,update,correct,109,1117,3122,2700,0,-0.419023958486346,0.613575200444463,300,-1.42639612978925,2175,0,-1.31095123344598,1,125
206993057,3,b_0,blue,blue,X,no_color_change,figure_change,not_first,update,correct,24,1031,3036,2550,0,-0.390374239244082,0.525347395327416,925,-1.26837558398818,625,-0.219646560932186,-0.394775677583322,0,NaN
206993057,4,b_0,blue,blue,Y,no_color_change,figure_change,not_first,update,correct,16,1023,3027,2850,0,-0.155264044006433,0.714876159186317,1975,-1.36909320519054,1725,-0.371601994507565,-0.986231997078235,0,NaN
206993057,5,b_0,blue,blue,X,no_color_change,figure_change,not_first,update,correct,6,1013,3018,2600,0,0.0950107228648809,1.58446462114151,1750,-0.993895294343632,900,-0.104713083801628,-0.32727633243128,1,125
206993057,6,b_0,blue,blue,Y,no_color_change,figure_change,not_first,update,correct,16,1022,3027,2775,0,1.24629381032346,2.86553778527016,1675,-0.487390500634366,1225,0.625817297848622,0.328075424951134,0,NaN
206993057,8,b_1,blue,blue,Y,no_color_change,figure_change,not_first,update,correct,22,1030,3035,2525,0,0.184145819465964,2.19346102144721,525,-0.776646010971007,2150,0.592527103471517,0.64843960708568,1,150
206993057,9,b_1,red,blue,X,color_change,figure_change,not_first,no_update,correct,12,1018,3023,2400,0,0.636458213616124,1.94802774489934,1500,-0.390971997188819,900,0,0.673147547799556,1,175
206993057,10,b_1,red,blue,Y,no_color_change,figure_change,not_first,no_update,correct,22,1029,3034,2550,0,-0.0311629549794255,2.17244488817506,2025,-1.33179156636377,1075,-0.0378290398898731,0.447140210409335,0,NaN
206993057,11,b_1,red,blue,X,no_color_change,figure_change,not_first,no_update,correct,9,1017,3021,2675,0,0.732521775319554,2.52985499953002,1200,-0.617282989736585,1825,0.539587224031209,1.78510876195157,0,NaN
206993057,12,b_1,red,blue,X,no_color_change,no_figure_change,not_first,no_update,correct,22,1029,3035,2500,0,-0.386979565630143,1.01620595749795,950,-1.21708982606397,325,0.147288733259433,-0.150804740346791,0,NaN
206993057,13,b_1,red,blue,X,no_color_change,no_figure_change,not_first,no_update,correct,69,1075,3081,2575,0,-1.13526936521042,-0.0233654652805221,175,-2.24908585175422,100,-0.122245173687219,-1.38068803765362,1,125
206993057,14,b_1,red,blue,X,no_color_change,no_figure_change,not_first,no_update,correct,41,1048,3053,2550,0,-0.283747099233117,1.65683043973946,1825,-1.44097157735138,1025,1.09626703706209,0.0802608526941053,0,NaN
206993057,16,b_2,red,blue,X,color_change,figure_change,not_first,no_update,correct,387,1395,3400,1900,0,1.38640453244931,2.997507914924,1100,-0.00165412151609745,125,0.235684347805649,0.935401721890341,0,NaN
206993057,17,b_2,blue,blue,Y,color_change,figure_change,not_first,update,correct,21,1027,3033,2475,0,-0.88557655813288,0.82972173613969,1475,-2.40085749405004,2100,-0.434122993260918,-1.65684642158986,1,125
206993057,18,b_2,blue,blue,X,no_color_change,figure_change,not_first,update,correct,236,1243,3248,2475,0,-0.0538584684392795,1.74569751887239,1550,-1.58794067360287,550,-1.00178233751459,-0.810351733458436,0,NaN
206993057,19,b_2,blue,blue,Y,no_color_change,figure_change,not_first,update,correct,22,1030,3039,2725,0,0.523977548679014,2.44144340313341,2000,-0.739847800431745,1575,1.26262211784523,1.27352973074123,0,NaN
206993057,20,b_2,red,blue,X,color_change,figure_change,not_first,no_update,correct,148,1154,3159,3100,0,-0.116411063494567,1.5976416567939,1475,-1.55931717954171,1600,-1.49034750415314,1.40627498013933,0,NaN
206993057,21,b_2,blue,blue,X,color_change,no_figure_change,not_first,update,correct,21,1028,3034,2800,0,0.023140709028099,1.69120739994356,1700,-1.31510651454922,575,0.522318834677171,-0.113087573409695,0,NaN
206993057,22,b_2,blue,blue,X,no_color_change,no_figure_change,not_first,update,correct,22,1029,3033,2750,0,-0.332734593590456,1.19683283068568,1850,-1.77764523781614,1550,-0.802976109500187,1.01659751283268,0,NaN
206993057,23,b_2,blue,blue,X,no_color_change,no_figure_change,not_first,update,correct,18,1024,3029,2450,0,-0.782646093598529,0.673467184807498,1100,-2.99114713846596,1700,-0.56864222805309,-0.43891754838004,0,NaN
206993057,24,b_2,blue,blue,X,no_color_change,no_figure_change,not_first,update,correct,5,1011,3015,2275,0,-1.09564273454974,0.0157421226411179,1025,-3.4109743665467,1850,-1.91032655981265,-1.71823270896502,0,NaN
206993057,25,b_2,blue,blue,Y,no_color_change,figure_change,not_first,update,correct,20,1028,3033,2500,0,0.153001785527813,1.90357422801988,775,-1.44661317054155,1150,0.543606659406073,-1.44509489475382,0,NaN
206993057,27,b_3,blue,blue,Y,no_color_change,no_figure_change,not_first,update,correct,26,1032,3039,3050,0,0.305316902586841,2.08162003236849,1850,-1.10647144854062,1575,1.20283401550978,-1.06136267579488,0,NaN
206993057,28,b_3,blue,blue,Y,no_color_change,no_figure_change,not_first,update,correct,12,1018,3023,2625,0,0.105009758380839,2.1187059162149,1125,-1.46176396471797,600,-0.252625109226548,0.141431385088906,0,NaN
206993057,29,b_3,red,blue,X,color_change,figure_change,not_first,no_update,correct,22,1029,3034,2275,0,-0.151375678174768,1.75887455452478,1675,-1.81135096030357,700,-0.7723149295134,1.43093497530202,0,NaN
206993057,31,b_0,red,blue,Y,color_change,no_figure_change,not_first,no_update,correct,179,1185,3189,1375,0,2.55586208027521,3.44910706159412,1225,-0.2080996740203,1350,-0.0164373331333909,-0.0356634991610707,0,NaN
206993057,32,b_0,red,blue,Y,no_color_change,no_figure_change,not_first,no_update,correct,128,1136,3141,2675,0,-0.0584790477716062,0.408583996326394,800,-1.18300853009221,900,0.32962566443965,0.0646465848561641,1,150
206993057,33,b_0,blue,blue,X,color_change,figure_change,not_first,update,correct,21,1028,3034,2325,0,-1.18184424310581,0.552676359506413,500,-3.43126332562578,1350,-0.224489061602499,-0.363986642793359,0,NaN
206993057,34,b_0,red,blue,X,color_change,no_figure_change,not_first,no_update,correct,34,1042,3047,2375,0,0.113566248199031,0.802121080503943,1050,-1.59174435399737,825,0.269549888797049,-0.633208903657268,2,137.5
206993057,36,b_1,red,blue,Y,color_change,no_figure_change,not_first,no_update,correct,53,1059,3064,1650,0,2.05727216758704,3.50100012983342,1075,-0.0700164865895809,300,-0.0655735321791946,1.92200130152771,0,NaN
206993057,37,b_1,blue,blue,Y,color_change,no_figure_change,not_first,update,correct,8,1016,3021,1975,0,1.81581921931042,3.20382561262503,1925,-0.490115406127067,400,1.13133920775847,2.66689936668493,0,NaN
206993057,38,b_1,red,blue,Y,color_change,no_figure_change,not_first,no_update,correct,38,1044,3049,2175,0,-0.353735586611924,0.787257959634664,2175,-2.92630078047984,600,-0.0431589869972983,0.787257959634664,1,225
206993057,39,b_1,blue,blue,X,color_change,figure_change,not_first,update,correct,30,1039,3045,2500,0,-1.21086507903374,0.397236882544472,1000,-3.09617186835034,1625,-0.718344220722481,-2.23360742964466,0,NaN
206993057,40,b_1,blue,blue,X,no_color_change,no_figure_change,not_first,update,correct,18,1025,3031,2100,0,1.63660027103862,3.42661260716024,1475,-0.0846079160021094,1625,1.24709575018447,0.261223344740174,0,NaN
206993057,41,b_1,blue,blue,Y,no_color_change,figure_change,not_first,update,correct,5,1012,0,225,0,0.0770974451811346,0.189776482540055,200,-0.0271371819742314,50,-0.0271371819742314,0.0625209987533535,0,NaN
206993057,42,b_1,red,blue,X,color_change,figure_change,not_first,no_update,correct,1790,2798,4803,625,0,1.56929884398033,2.98479435293313,100,-0.0111473406519593,225,0.17718278442716,1.98436248177709,0,NaN
206993057,43,b_1,blue,blue,Y,color_change,figure_change,not_first,update,correct,170,1178,3182,1050,0,NaN,NaN,25,NaN,25,NaN,NaN,0,NaN
206993057,44,b_1,red,blue,Y,color_change,no_figure_change,not_first,no_update,correct,146,1154,3159,1450,0,-0.56154229101419,0.21503579709263,600,-1.88369280612592,300,-0.713581629304153,-0.661049287048971,2,175
206993057,45,b_1,red,blue,X,no_color_change,figure_change,not_first,no_update,correct,375,1382,3388,1275,0,NaN,NaN,25,NaN,25,NaN,NaN,0,NaN
206993057,46,b_1,red,blue,Y,no_color_change,figure_change,not_first,no_update,correct,13,1020,3027,2175,0,-0.263298941101626,0.799827684971963,1675,-1.65088519139175,1025,-0.577528136873863,-0.737210795116227,1,125
206993057,47,b_1,red,blue,X,no_color_change,figure_change,not_first,no_update,correct,20,1027,3032,2150,0,0.572298311358632,1.67302804511689,725,-1.29142141226076,1650,-0.61594051430323,1.31748781025839,0,NaN
206993057,48,b_1,blue,blue,X,color_change,no_figure_change,not_first,update,correct,22,1029,3033,1025,0,0.0841857953784959,0.918181278087493,475,-1.56775559655137,950,-0.555968620688211,0.4910263715997,1,250
206993057,49,b_1,red,blue,X,color_change,no_figure_change,not_first,no_update,correct,22,1031,3035,2250,0,-0.425073040849288,0.375637411732826,800,-1.36461029615416,2200,-0.512258259852213,-1.36461029615416,1,300
206993057,51,b_2,blue,blue,Y,no_color_change,no_figure_change,not_first,update,correct,24,1032,3036,275,0,0.228405341397528,1.43161420394389,50,-1.86297233708612,275,1.43161420394389,-1.13843514933477,0,NaN
206993057,52,b_2,blue,blue,X,no_color_change,figure_change,not_first,update,correct,16,1025,3029,2500,0,-0.160545310764947,0.567795189982045,1600,-2.11123440115426,1125,0.0319637007941479,-1.3993708207678,1,225
206993057,53,b_2,blue,blue,Y,no_color_change,figure_change,not_first,update,correct,5,1013,3019,950,0,0.345721280377051,2.1885705752257,850,-1.71774526252791,525,9.5891102382395e-05,1.88423618903942,0,NaN
206993057,54,b_2,blue,blue,Y,no_color_change,no_figure_change,not_first,update,correct,14,1020,3025,2650,0,0.0540187002669675,0.45656151121841,1125,-0.518051680621152,1375,0.087292866868818,-0.0113710865575181,0,NaN
206993057,55,b_2,red,blue,Y,color_change,no_figure_change,not_first,no_update,correct,38,1045,3050,2550,0,0.631171906604504,1.24459459059733,900,-0.340733050465617,1000,0.0697128314320365,0.568330581970347,2,137.5
206993057,56,b_2,blue,blue,Y,color_change,no_figure_change,not_first,update,correct,14,1022,3027,2475,0,1.25716201969176,1.87272126582833,2150,-0.125689262447788,775,1.40343021076865,0.856603208507568,0,NaN
206993057,57,b_2,blue,blue,X,no_color_change,figure_change,not_first,update,correct,21,1028,3033,2275,0,0.328221649697296,1.00809516842143,1950,-0.996204671726009,625,0.506736530540024,0.772011274355856,1,175
206993057,58,b_2,blue,blue,X,no_color_change,no_figure_change,not_first,update,correct,12,1019,3025,2050,0,-0.169356314442277,0.363099650096322,750,-1.65283497714019,1800,0.0502309557980035,-0.410709582429205,1,225
206993057,59,b_2,red,blue,Y,color_change,figure_change,not_first,no_update,correct,24,1030,3035,2300,0,-0.654480379136914,0.0847996982068744,1150,-2.72283584307469,1600,-0.332262669755167,-0.232647796230205,1,225
206993057,60,b_2,blue,blue,Y,color_change,no_figure_change,not_first,update,correct,11,1017,3023,2175,0,0.204966162788523,1.20347328952566,1725,-1.05910124396369,100,-0.493655385990019,0.741645758601415,0,NaN
206993057,61,b_2,blue,blue,X,no_color_change,figure_change,not_first,update,correct,21,1029,3034,2575,0,-1.1145604692347,0.125337661739051,1600,-3.0657663979699,575,-0.589162923962934,-0.168760349267903,0,NaN
206993057,62,b_2,red,blue,Y,color_change,figure_change,not_first,no_update,correct,9,1016,3022,2150,0,-0.214411993879602,0.353950040743997,275,-1.16016247494959,875,-0.0593885560755268,-0.443831967377141,2,237.5
206993057,64,b_3,red,blue,X,color_change,no_figure_change,not_first,no_update,correct,416,1423,3428,1975,0,1.97009141582025,2.81473148285786,500,0.101828359804957,1950,0.52581885991413,1.42135385598897,0,NaN
206993057,65,b_3,blue,blue,X,color_change,no_figure_change,not_first,update,correct,6,1013,3018,2450,0,0.514511287434483,0.915536281846778,450,-0.419795264379942,1100,0.39058044185409,0.535775552711507,1,150
206993057,66,b_3,red,blue,Y,color_change,figure_change,not_first,no_update,correct,16,1023,3029,2750,0,-0.13622763948979,0.26714462031229,1625,-1.3845796182253,2050,-0.143413134538143,0.0563520045000827,1,125
206993057,67,b_3,red,blue,X,no_color_change,figure_change,not_first,no_update,correct,21,1029,3034,2175,0,-0.119062462514829,0.269477970470262,650,-0.891955061585896,1300,-0.673059647622372,-0.299116312031636,1,125
206993057,68,b_3,red,blue,Y,no_color_change,figure_change,not_first,no_update,correct,22,1029,3034,2300,0,0.0536480164292248,0.401360199946917,1525,-0.867606712505954,1150,0.266513337221605,-0.196584750809208,0,NaN
206993057,69,b_3,blue,blue,X,color_change,figure_change,not_first,update,correct,22,1030,3035,2475,0,0.329941581534137,0.685509509081693,2075,-0.848412510179068,1425,0.0586374091068643,0.0888510972825326,2,212.5
206993057,70,b_3,red,blue,Y,color_change,figure_change,not_first,no_update,correct,20,1027,3032,1925,0,0.0258578453643211,0.45257403954434,850,-1.03686249913617,1075,0.117290800064126,-0.195993422344516,2,137.5
206993057,71,b_3,red,blue,Y,no_color_change,no_figure_change,not_first,no_update,correct,130,1138,3142,2250,0,0.0567016304399475,0.479215784156262,100,-1.04916852394191,725,-0.132473557941346,0.295272677011141,1,125
206993057,72,b_3,blue,blue,Y,color_change,no_figure_change,not_first,update,correct,31,1038,3043,2400,0,-0.411236202769732,0.032650920361222,975,-1.22387412155753,475,-0.847405653604052,-0.521911297492045,0,NaN
206993057,73,b_3,blue,blue,X,no_color_change,figure_change,not_first,update,correct,22,1029,3034,1625,0,-0.219676152327062,0.425684576251263,725,-1.72302726408414,975,-0.0233095288041323,-0.0499432824908551,0,NaN
206993057,74,b_3,red,blue,Y,color_change,figure_change,not_first,no_update,correct,142,1150,3155,2000,0,0.918818427933388,1.54601228908615,125,-0.567803180907243,850,0.777125466482919,0.207748073311564,1,125
206993057,75,b_3,red,blue,X,no_color_change,figure_change,not_first,no_update,correct,20,1028,3033,2300,0,0.798861793369804,1.61714750520352,1750,-0.419291836092434,1975,-0.32962566443965,0.469970283701555,0,NaN
206993057,76,b_3,blue,blue,X,color_change,no_figure_change,not_first,update,correct,21,1028,3035,1875,0,-0.639168514073242,0.0278164106161072,1800,-1.99059540343195,1075,-0.400321379671107,-0.494406532958681,0,NaN
206993057,77,b_3,red,blue,Y,color_change,figure_change,not_first,no_update,correct,18,1025,3031,2250,0,-0.325097106094953,0.32995329237279,675,-1.64088055304318,1825,-0.970010418925204,-0.70542555831818,0,NaN
206993057,78,b_3,blue,blue,Y,color_change,no_figure_change,not_first,update,correct,21,1029,3035,2575,0,0.783611170835483,1.25989721235253,2025,-0.71010557684279,75,-0.71010557684279,0.922424459367917,1,150
206993057,79,b_3,blue,blue,X,no_color_change,figure_change,not_first,update,correct,127,1135,3141,2900,0,-0.197651938869473,0.164309403932317,2125,-1.27716560170657,750,-0.0312764812270737,-0.139513563041257,2,187.5
206993057,80,b_3,blue,blue,Y,no_color_change,figure_change,not_first,update,correct,4,1012,3016,2800,0,-0.251272897723412,0.831591612636147,1625,-1.50144689925391,2175,-0.055449029952649,-0.419052108336478,0,NaN
206993057,81,b_3,blue,blue,X,no_color_change,figure_change,not_first,update,correct,16,1023,3028,2250,0,-0.105237637523569,0.655343766457216,825,-1.44014851205593,675,0.237378423947739,-0.70486352991255,0,NaN
206993057,82,b_3,red,blue,Y,color_change,figure_change,not_first,no_update,correct,186,1194,3198,2275,0,-0.400759686510732,0.303886894375163,1325,-1.59424551358452,1525,-0.504139479850499,-0.0255789515605169,2,125
206993057,83,b_3,blue,blue,Y,color_change,no_figure_change,not_first,update,correct,185,1191,3197,850,0,0.65880983026208,1.30311213582622,200,-1.04894477803635,75,-1.04894477803635,1.04416620476763,0,NaN
206993057,84,b_3,red,blue,X,color_change,figure_change,not_first,no_update,correct,143,1151,3156,2125,0,-0.164435660550454,0.240574794027154,875,-1.47510880979953,2125,-0.582953975083669,-0.357250292850993,1,175
206993057,86,b_0,blue,red,X,color_change,figure_change,not_first,no_update,correct,47,551,1554,3325,0,0.0929676178060733,0.401416136423307,600,-0.193739981438529,100,0.0168049156925233,-0.0837608779310646,0,NaN
206993057,87,b_0,red,red,X,color_change,no_figure_change,not_first,update,correct,6,509,1512,3200,0,0.0806372987507284,0.422336378593076,225,-0.138682506820609,1850,0.0743156043463938,0.00563360226496945,3,175
206993057,88,b_0,blue,red,X,color_change,no_figure_change,not_first,no_update,correct,11,513,1516,3400,0,0.160761800543027,0.360382735528819,1400,-0.0196976306143937,1575,0.142494178140311,0.190008219370812,0,NaN
206993057,89,b_0,red,red,X,color_change,no_figure_change,not_first,update,correct,4,508,1510,2350,0,-0.110187326811201,0.204943258566878,850,-0.640640464091908,2000,0.0429192592413421,-0.262078373736417,1,250
206993057,90,b_0,blue,red,X,color_change,no_figure_change,not_first,no_update,correct,12,516,1519,3025,0,0.00665772658639034,0.435105877060338,1325,-0.715195796194258,400,-0.0970338046858346,0.000966901949022936,2,212.5
206993057,91,b_0,blue,red,Y,no_color_change,figure_change,not_first,no_update,correct,3,506,1510,2900,0,-0.292766511614534,0.214484423253931,1500,-1.18490237936426,1050,-0.00584136632013044,-0.413010968886384,1,250
206993057,92,b_0,red,red,X,color_change,figure_change,not_first,update,correct,8,511,1513,3075,0,0.0531647275424457,0.468196298307481,175,-0.881742659182166,1300,-0.0824184024977104,-0.0215515252604533,2,212.5
206993057,93,b_0,red,red,Y,no_color_change,figure_change,not_first,update,correct,12,515,1517,2275,0,-0.126913435448318,0.315194053531092,575,-1.0328590456117,1850,-0.876356775598352,0.158835620171319,1,225
206993057,94,b_0,blue,red,Y,color_change,no_figure_change,not_first,no_update,correct,80,584,1587,3050,0,0.367641608353209,0.753072781635323,1625,-0.185605219586418,1550,-0.0413929925284215,0.562864789134548,1,300
206993057,96,b_1,red,red,X,no_color_change,figure_change,not_first,update,correct,10,513,1516,1425,0,-0.6749778977553,0.0272091003010184,1325,-2.11662827566328,725,-0.190775348189872,-0.0612903962727784,0,NaN
206993057,97,b_1,blue,red,Y,color_change,figure_change,not_first,no_update,correct,11,515,1518,2000,0,-0.127943917165198,0.323608497765152,1300,-0.572222162542034,1925,0.0355196625074968,-0.157708899718326,1,275
206993057,98,b_1,red,red,X,color_change,figure_change,not_first,update,correct,24,528,1531,1600,0,0.890241325231016,1.45268627369243,575,-0.104521301596864,75,1.02429277379887,1.2393205799663,1,125
206993057,99,b_1,blue,red,Y,color_change,figure_change,not_first,no_update,correct,13,516,1519,1125,0,-0.314517004232453,0.342562972336082,275,-1.22858876742466,525,-0.110154903861831,-0.810959043773525,0,NaN
206993057,100,b_1,blue,red,Y,no_color_change,no_figure_change,not_first,no_update,correct,59,563,1565,1500,0,-0.192724843359217,0.267168593087885,425,-0.978696554616015,950,-0.182273003778628,-0.204951249492076,1,150
206993057,101,b_1,red,red,X,color_change,figure_change,not_first,update,correct,2,505,0,1825,0,-0.165903759987034,0.230346409773027,550,-0.434962040406765,1625,-0.00444295441038656,-0.163318529207699,0,NaN
206993057,102,b_1,blue,red,Y,color_change,figure_change,not_first,no_update,correct,648,1153,2157,1625,0,0.0811146523172414,0.577288409117907,825,-0.742133205038526,1425,-0.0673475175732696,-0.0676831364316082,0,NaN
206993057,103,b_1,blue,red,Y,no_color_change,no_figure_change,not_first,no_update,correct,2,506,0,1875,0,-0.173164644878004,0.0917358212792044,275,-0.511722867863911,975,-0.273401514742744,-0.0516533404833429,2,125
206993057,104,b_1,blue,red,X,no_color_change,figure_change,not_first,no_update,correct,570,1074,2076,2425,0,-1.15637642970035,0.355995717594822,1025,-2.56915436965642,1500,-1.67656802497984,-1.553371931194,0,NaN
206993057,105,b_1,blue,red,X,no_color_change,no_figure_change,not_first,no_update,correct,11,515,1517,2775,0,-0.518422344018916,0.675496879807926,1425,-1.90002625723173,725,-0.693316643000664,0.330169047353151,1,125
206993057,106,b_1,blue,red,Y,no_color_change,figure_change,not_first,no_update,correct,7,510,1513,1525,0,-0.404932602006371,0.289806884175341,950,-1.47558826531144,450,-0.0669639531637399,-0.110178876637428,0,NaN
206993057,108,b_2,red,red,Y,no_color_change,figure_change,not_first,update,correct,61,566,1568,1825,0,1.0458145246531,2.20110034593701,1850,0.0714548531253176,975,1.11265642464429,2.20110034593701,0,NaN
206993057,109,b_2,blue,red,Y,color_change,no_figure_change,not_first,no_update,correct,7,510,1513,2175,0,1.01139885848462,2.13210669777284,275,-0.346334689029791,1425,0.108596673448117,-0.148599244991994,0,NaN
206993057,110,b_2,blue,red,X,no_color_change,figure_change,not_first,no_update,correct,11,514,1517,2275,0,0.520159998977557,1.47231997690524,1875,-1.00332458607791,975,-0.910909536156825,0.707140943594133,0,NaN
206993057,111,b_2,blue,red,X,no_color_change,no_figure_change,not_first,no_update,correct,61,564,1567,2225,0,0.723634305053628,1.54648375367286,50,-0.65034943820813,625,1.54648375367286,0.687978704968041,0,NaN
206993057,113,b_3,blue,red,Y,color_change,no_figure_change,not_first,no_update,correct,9,513,1515,2275,0,0.889745524843643,1.79799013337161,1500,-0.380839504037074,1100,1.29930845543172,0.375381702126473,0,NaN
206993057,114,b_3,blue,red,X,no_color_change,figure_change,not_first,no_update,correct,102,607,1609,2500,0,-0.244541875064511,0.496683946640264,1525,-1.57908672848289,1825,-0.582242782741,0.0733487023973709,0,NaN
206993057,115,b_3,red,red,X,color_change,no_figure_change,not_first,update,correct,10,513,1516,2000,0,-0.221120936574598,0.608133380384259,1050,-1.52020959162007,1975,-0.782351531562763,-0.287553443269353,1,200
206993057,116,b_3,red,red,Y,no_color_change,figure_change,not_first,update,correct,5,509,1512,2500,0,-0.0184881535682519,1.33700964051841,1300,-1.53651107902509,175,0.437958637356216,-0.307874366049233,0,NaN
206993057,117,b_3,blue,red,X,color_change,figure_change,not_first,no_update,correct,11,515,1518,2800,0,1.08379099843401,1.98149373963082,875,-0.374278954449075,2175,1.4315742493179,0.249892212808648,2,200
206993057,118,b_3,red,red,X,color_change,no_figure_change,not_first,update,correct,11,514,1517,1525,0,-0.262723280699571,0.899202830740969,625,-2.42746727496117,1475,-0.710089594992393,-2.06359250512059,1,125
207280074,2,b_0,red,red,Y,no_color_change,figure_change,not_first,update,correct,21,1031,3037,2200,0,-0.256068855771611,1.15708009841787,1675,-1.63411874289062,475,0,0.0387888206815718,0,NaN
207280074,3,b_0,red,red,Y,no_color_change,no_figure_change,not_first,update,correct,9,1015,3019,2100,0,-1.29656911197399,-0.0702748078397613,75,-3.03179328563894,1750,-0.113732653233004,-1.0498122486318,0,NaN
207280074,4,b_0,red,red,Y,no_color_change,no_figure_change,not_first,update,correct,14,1020,0,1125,0,-0.380072941481517,0.243826846053913,900,-1.42341403795369,1125,-0.593724356070396,-1.42341403795369,0,NaN
207280074,5,b_0,blue,red,Y,color_change,no_figure_change,not_first,no_update,correct,228,1235,3239,1875,0,-0.430074829893738,0.400897626097809,600,-1.73540066355917,1400,0,0.00650470964104549,0,NaN
207280074,6,b_0,blue,red,X,no_color_change,figure_change,not_first,no_update,correct,15,1023,3027,1575,0,-0.712865585902817,1.48311370435249,1500,-4.06827686543572,1375,-0.0299695517817494,-2.54210437763116,0,NaN
207280074,7,b_0,red,red,X,color_change,no_figure_change,not_first,update,correct,44,1051,3057,1775,0,1.61400964889156,2.59078993445371,1525,-0.135601247609034,175,-0.135601247609034,1.76429274809976,1,150
207280074,8,b_0,red,red,X,no_color_change,no_figure_change,not_first,update,correct,17,1026,3032,3050,0,0.621110082556298,1.77857916559359,1150,-1.04095307353786,225,-0.961260403886524,0.773222417207958,0,NaN
207280074,9,b_0,red,red,X,no_color_change,no_figure_change,not_first,update,correct,23,1029,3034,2875,0,-0.648284588378389,0.802593376077955,1350,-2.43886705345089,2325,-0.126542541544511,-1.59493086026788,0,NaN
207280074,10,b_0,blue,red,X,color_change,no_figure_change,not_first,no_update,correct,11,1018,3024,2850,0,0.399826205249702,1.28462029481531,600,-0.887394038576247,2475,0.217648382713264,-0.835436173836117,1,275
207280074,11,b_0,red,red,X,color_change,no_figure_change,not_first,update,correct,23,1029,3034,2150,0,0.423081244665044,1.40102666305414,1750,-0.87534236795296,2150,0.111936874497746,-0.87534236795296,0,NaN
207280074,12,b_0,blue,red,X,color_change,no_figure_change,not_first,no_update,correct,56,1062,3067,2400,0,0.276102555790415,1.6584615213019,1700,-1.97104673981913,600,0.700672956303537,0.465465848178862,0,NaN
207280074,13,b_0,red,red,X,color_change,no_figure_change,not_first,update,correct,18,1024,3028,1600,0,0.986815956478381,2.19595804986166,1575,-0.121274923921087,100,0.109742033821319,0.757738813890623,0,NaN
207280074,15,b_1,red,red,Y,no_color_change,figure_change,not_first,update,correct,9,1017,3022,2800,0,0.374850571032736,2.02663606822389,2400,-1.33466266223783,825,0.33261812796389,1.85056993978038,0,NaN
207280074,16,b_1,red,red,X,no_color_change,figure_change,not_first,update,correct,22,1028,3034,2975,0,0.215405977078193,1.32253117922631,2175,-1.46651272759988,1025,-0.0565470770635672,-0.0288122721523609,1,250
207280074,17,b_1,blue,red,X,color_change,no_figure_change,not_first,no_update,correct,9,1016,3021,2725,0,-0.408955855659322,0.597914506452665,875,-1.62302482092614,2100,-0.290477186976503,-0.70833494557397,0,NaN
207280074,18,b_1,red,red,Y,color_change,figure_change,not_first,update,correct,62,1069,3074,2850,0,0.72230433052565,2.07548124982291,1850,-0.663879445327807,375,0.0753029882984835,0.544958986859614,0,NaN
207280074,20,b_2,blue,red,X,color_change,figure_change,not_first,no_update,correct,17,1025,3030,2600,0,0.361450151666874,1.55953406608624,500,-0.98432618408606,1950,0.0476879019696279,0.361550118698601,0,NaN
207280074,21,b_2,red,red,X,color_change,no_figure_change,not_first,update,correct,130,1136,3141,2500,0,-0.561670411058564,0.841821164894812,1650,-2.13434288614525,1000,-0.321643924581758,-0.918121808046216,0,NaN
207280074,22,b_2,blue,red,Y,color_change,figure_change,not_first,no_update,correct,122,1133,3138,3050,0,-0.00685157105556618,1.25397233773357,2275,-1.17659422734101,825,-0.24386675224803,0.690576689191975,0,NaN
207280074,23,b_2,blue,red,X,no_color_change,figure_change,not_first,no_update,correct,6,1013,3018,2325,0,-0.320915636539126,0.896532557029004,2225,-1.8245511012162,1750,-0.0459719356226036,-1.60223369379126,0,NaN
207280074,24,b_2,blue,red,X,no_color_change,no_figure_change,not_first,no_update,correct,38,1045,3050,1900,0,1.28496369811731,4.0068612326899,1600,-0.481907200155001,275,0.659489763974954,2.66142389804052,0,NaN
207280074,25,b_2,red,red,X,color_change,no_figure_change,not_first,update,correct,3,1010,3015,2575,0,-0.991403688695186,0.210545080160466,125,-3.02975806973899,2375,0.108265504638996,-2.6907549507164,1,150
207280074,27,b_3,blue,red,Y,color_change,no_figure_change,not_first,no_update,correct,12,1021,3026,2600,0,-0.180524738677113,1.2488244386925,325,-1.99495055009512,2250,-1.68727379345426,-1.2718104065038,1,125
207280074,28,b_3,red,red,X,color_change,figure_change,not_first,update,correct,68,1076,3081,2200,0,1.3980500237566,2.92264984472938,2050,-1.67717752634269,75,-0.0950565543863209,2.08605639126387,1,150
207280074,29,b_3,red,red,X,no_color_change,no_figure_change,not_first,update,correct,5,1012,3018,2975,0,-0.489135058404588,0.587099927847,800,-1.62773375183193,1325,-0.000119718582350548,-0.738104966385136,0,NaN
207280074,30,b_3,red,red,Y,no_color_change,figure_change,not_first,update,correct,67,1073,3079,2850,0,0.056990076127551,1.63531592871413,1875,-1.62565862973785,925,-0.406205149915349,-0.247338591136195,0,NaN
207280074,32,b_0,blue,blue,Y,no_color_change,figure_change,not_first,update,correct,22,1029,3035,2550,0,-0.245129239116454,0.677447551327534,1325,-2.0401642680295,2500,-0.196697630801921,-2.0401642680295,0,NaN
207280074,33,b_0,blue,blue,X,no_color_change,figure_change,not_first,update,correct,9,1015,3021,2975,0,0.850854879201403,2.25473987379577,1925,-0.390841265180364,175,0.0503217107813395,0.899246178228949,0,NaN
207280074,34,b_0,red,blue,Y,color_change,figure_change,not_first,no_update,correct,21,1027,3032,3150,0,0.298456410335522,1.12411758207736,1900,-0.582231372164745,2500,0.081049480251309,-0.582231372164745,0,NaN
207280074,35,b_0,blue,blue,X,color_change,figure_change,not_first,update,correct,6,1013,3019,2750,0,0.526604959215955,1.63148493407891,1725,-0.516984744783706,2500,0.0226268120642502,-0.516984744783706,0,NaN
207280074,36,b_0,red,blue,X,color_change,no_figure_change,not_first,no_update,correct,14,1020,3026,2800,0,-0.401885606721853,0.541287617000864,1375,-2.47190938217963,2500,0.26409919266527,-2.47190938217963,1,150
207280074,37,b_0,blue,blue,X,color_change,no_figure_change,not_first,update,correct,6,1012,3017,2775,0,0.837206154627703,2.90133993707098,1725,-1.31347247316178,2450,0.152760911079276,-0.810055834377805,0,NaN
207280074,38,b_0,blue,blue,X,no_color_change,no_figure_change,not_first,update,correct,15,1022,3028,2775,0,0.462010737644796,1.85974836442725,1825,-1.18724918117021,325,0.0620541318516915,-0.160143556990893,1,150
207280074,39,b_0,blue,blue,Y,no_color_change,figure_change,not_first,update,correct,4,1011,3015,3075,0,-0.859259365538133,-0.0140868865232457,525,-1.68029020948381,2075,-1.17499797957634,-1.12168330423623,0,NaN
207280074,40,b_0,red,blue,X,color_change,figure_change,not_first,no_update,correct,16,1022,3027,2700,0,0.125255466011025,1.21466473652848,1575,-1.01277930049137,2425,-0.152441661526342,-0.938633591822274,1,125
207280074,42,b_1,red,blue,Y,color_change,figure_change,not_first,no_update,correct,49,1059,3065,1475,0,0.716813997259543,2.42761350670994,225,-0.717154214473793,850,0.97155620196867,0.870154562717771,0,NaN
207280074,43,b_1,red,blue,X,no_color_change,figure_change,not_first,no_update,correct,10,1017,3023,3075,0,-1.04984489915426,0.00331221411169813,100,-2.40921675122207,1825,-0.0913053721393376,-0.758856187325894,0,NaN
207280074,44,b_1,red,blue,Y,no_color_change,figure_change,not_first,no_update,correct,22,1028,3034,3025,0,0.708990777673244,2.05600702709389,2450,-0.786511179848867,1425,0.244824500906834,1.65666574256664,0,NaN
207280074,45,b_1,blue,blue,X,color_change,figure_change,not_first,update,correct,8,1016,3020,2450,0,1.38608734731223,3.16220672801279,1800,-0.209068550978143,2125,0.191310294596147,0.996218229932879,0,NaN
207280074,46,b_1,red,blue,X,color_change,no_figure_change,not_first,no_update,correct,20,1027,3033,2850,0,-0.464173532438068,0.556731314124082,1000,-1.74374105812959,375,-0.47863489223742,-0.166568454243704,0,NaN
207280074,47,b_1,red,blue,X,no_color_change,no_figure_change,not_first,no_update,correct,6,1012,3017,2900,0,-0.650809965208106,0.748320952079048,1050,-2.15940397605063,2300,-0.147293762485269,-1.16669749120003,0,NaN
207280074,48,b_1,blue,blue,Y,color_change,figure_change,not_first,update,correct,15,1022,3027,3125,0,0.132101192219978,1.5021090527521,2025,-0.953159446480805,1075,-0.177782094790537,0.292392684294112,0,NaN
207280074,49,b_1,red,blue,X,color_change,figure_change,not_first,no_update,correct,5,1012,3016,3025,0,-0.790098706390684,0.479433016119757,1125,-3.32917424419766,2475,-0.257594483024224,-3.26783842384007,0,NaN
207280074,51,b_2,blue,blue,X,no_color_change,no_figure_change,not_first,update,correct,113,1120,3126,2675,0,-1.51698559820742,0.679961641556895,950,-4.4828623161156,2275,-0.134204530814944,-4.07649754142379,0,NaN
207280074,52,b_2,blue,blue,X,no_color_change,no_figure_change,not_first,update,correct,9,1017,3022,2225,0,0.728428621270758,3.28795114567496,1700,-1.22579856468708,1850,-0.479672453284458,1.71401094351254,0,NaN
207280074,53,b_2,red,blue,Y,color_change,figure_change,not_first,no_update,correct,18,1027,3032,3000,0,0.476888089285851,1.49173344228172,1300,-0.988276897303627,2250,-0.199570876778334,-0.365081816877942,0,NaN
207280074,54,b_2,blue,blue,Y,color_change,no_figure_change,not_first,update,correct,7,1013,3019,2850,0,-0.0216354051508121,1.41914407518319,1825,-0.835755423389052,300,-0.0957748658804242,-0.431745114150129,0,NaN
207280074,55,b_2,blue,blue,Y,no_color_change,no_figure_change,not_first,update,correct,15,1022,3026,3150,0,0.318132985685215,1.62565862973785,2275,-0.798522944278037,600,-0.220162472942627,0.612001392975911,0,NaN
207280074,56,b_2,red,blue,X,color_change,figure_change,not_first,no_update,correct,5,1012,3018,2850,0,-0.785201128021799,0.284291726888392,1650,-2.68209530659305,2325,-0.0371127605286644,-1.35936459639615,0,NaN
207280074,58,b_3,blue,blue,Y,no_color_change,figure_change,not_first,update,correct,7,1014,3019,2500,0,-1.00269835090886,0.586820584488182,100,-2.5405480360606,2375,-0.269446622676927,-1.42784362550066,0,NaN
207280074,59,b_3,blue,blue,Y,no_color_change,no_figure_change,not_first,update,correct,17,1025,3031,2950,0,-0.000702590872178405,1.39180833221315,975,-1.74190537320021,2025,0.12047680003875,0.699475770480031,0,NaN
207280074,60,b_3,blue,blue,X,no_color_change,figure_change,not_first,update,correct,5,1011,3017,3150,0,-0.104338170807881,0.776215381766721,1800,-1.30908279180893,2275,0.162737459608487,-1.26035732879227,2,175
207280074,61,b_3,blue,blue,Y,no_color_change,figure_change,not_first,update,correct,15,1023,3028,3000,0,-0.437714113367121,0.572374542217885,350,-1.78524350001111,825,-0.655978018892672,-0.578160940364827,0,NaN
207280074,62,b_3,red,blue,X,color_change,figure_change,not_first,no_update,correct,3,1009,3014,2650,0,0.370221250968747,1.34591620897878,550,-1.34032934180242,1675,-0.0509203036930922,0.195540351172533,1,150
207280074,63,b_3,red,blue,Y,no_color_change,figure_change,not_first,no_update,correct,14,1021,3026,2500,0,0.148979093774183,1.34866973637284,1575,-1.23633379993393,1750,-0.0460916542049541,-0.186920613243295,1,125
207280074,64,b_3,blue,blue,X,color_change,figure_change,not_first,update,correct,23,1030,3035,2650,0,0.234107470775678,1.38897499243085,1500,-1.200498037617,675,0.0885917509393924,0.62173850434042,1,125
207280074,65,b_3,red,blue,X,color_change,no_figure_change,not_first,no_update,correct,116,1125,3129,3175,0,0.366234460939327,1.40529662582464,2150,-0.829929119047992,675,0.307038257534993,0.677726894686352,1,125
207280074,66,b_3,blue,blue,X,color_change,no_figure_change,not_first,update,correct,16,1023,3027,2650,0,0.380709525896255,1.85240562470975,2400,-1.46591413468813,150,0.010136173305676,-0.0242230598289239,0,NaN
207280074,67,b_3,blue,blue,X,no_color_change,no_figure_change,not_first,update,correct,11,1018,3024,2525,0,-0.605065373964107,0.283932571141341,1475,-2.4770572812207,325,-0.398383535868448,0.0824861032395153,1,175
207280074,68,b_3,blue,blue,X,no_color_change,no_figure_change,not_first,update,correct,39,1045,3051,2175,0,3.44032950772098,6.344366553084,2150,0.465984628702381,75,2.00365010041259,2.68931832772819,1,125
207280074,70,b_0,red,blue,X,color_change,figure_change,not_first,no_update,correct,7,1014,3020,1750,0,0.189068896693251,0.970837890474566,600,-1.29439731237393,1525,0.121833610638723,-1.17356135658813,1,200
207280074,71,b_0,red,blue,Y,no_color_change,figure_change,not_first,no_update,correct,65,1072,3077,1825,0,-0.0568969395873313,1.20436893844633,1075,-1.59908110445603,1850,-0.0901081863158325,-1.59908110445603,0,NaN
207280074,72,b_0,red,blue,Y,no_color_change,no_figure_change,not_first,no_update,correct,5,1011,3016,2350,0,0.581904056466191,1.93776497392568,675,-1.55255048211579,1550,0.467780407437638,-0.664517944433677,0,NaN
207280074,74,b_1,red,blue,Y,color_change,no_figure_change,not_first,no_update,correct,22,1028,3034,2300,0,-0.849616028635767,1.20484781277574,225,-2.25797227551923,1800,0.268369155435772,-0.818555853724692,0,NaN
207280074,75,b_1,blue,blue,X,color_change,figure_change,not_first,update,correct,30,1038,3044,2175,0,0.364846555942858,1.54504811762183,1150,-0.850041840882881,1475,0.6697855620571,0.618186853064021,0,NaN
207280074,76,b_1,blue,blue,Y,no_color_change,figure_change,not_first,update,correct,20,1027,3032,2525,0,0.732369761032666,1.39436232863663,1400,-0.0862771916806154,50,-0.0862771916806154,0.579477844770683,0,NaN
207280074,78,b_2,red,blue,X,color_change,figure_change,not_first,no_update,correct,12,1019,3025,3050,0,-0.0428979493969972,1.1410378083829,700,-2.1339837303982,2400,-0.190192921160876,-1.53383447707499,0,NaN
207280074,79,b_2,red,blue,Y,no_color_change,figure_change,not_first,no_update,correct,22,1028,3034,2825,0,-0.322515411366411,1.03436855150858,525,-2.05205631387632,2450,-0.152481567720459,-0.958107814551293,0,NaN
207280074,80,b_2,red,blue,X,no_color_change,figure_change,not_first,no_update,correct,10,1018,3024,2575,0,-0.585450874916374,0.465625472955329,1250,-1.7186400620301,1800,-0.316336400764218,-0.942185243098673,1,150
207280074,81,b_2,red,blue,Y,no_color_change,figure_change,not_first,no_update,correct,21,1029,3033,1750,0,0.314865655088288,2.17385001832093,350,-1.72598280174759,1700,0.26334097497705,-1.05220662027881,1,125
207280074,82,b_2,red,blue,Y,no_color_change,no_figure_change,not_first,no_update,correct,22,1029,3034,2525,0,2.41333636035211,4.17474659133946,2000,-0.0334413906699149,175,0.306918538952643,2.71757191316292,0,NaN
207280074,83,b_2,red,blue,Y,no_color_change,no_figure_change,not_first,no_update,correct,21,1028,3034,2750,0,-0.871290881517926,0.530034070259914,875,-2.55335792437211,1425,0.235566263871727,-0.0742654272514456,0,NaN
207280074,84,b_2,blue,blue,Y,color_change,no_figure_change,not_first,update,correct,43,1050,0,375,0,-0.857954669087764,0.635506141310731,300,-2.20421863204385,175,-1.15771859752374,0.11504955763886,0,NaN
207280074,85,b_2,blue,blue,X,no_color_change,figure_change,not_first,update,correct,885,1891,3896,2000,0,0.520693027872014,1.27013434635089,625,-0.435616014979465,1200,-0.145458077555894,0.15272100488516,0,NaN
207280074,86,b_2,blue,blue,Y,no_color_change,figure_change,not_first,update,correct,4,1011,3017,2925,0,0.49471063898059,1.539301625669,1100,-1.14067865263585,1675,0.0161221024232047,0.184047367266882,0,NaN
207280074,87,b_2,blue,blue,X,no_color_change,figure_change,not_first,update,correct,14,1022,3026,2950,0,1.30828670395691,2.51389069839055,2050,-0.120556612426984,150,0.0901480925099492,0.983727591174307,0,NaN
207280074,88,b_2,blue,blue,Y,no_color_change,figure_change,not_first,update,correct,176,1182,3187,2700,0,-1.28412489367824,-0.119638769962296,75,-2.5028765888143,2350,-0.155993312802741,-1.50869357478138,0,NaN
207280074,90,b_3,blue,blue,X,no_color_change,figure_change,not_first,update,correct,17,1025,3030,2750,0,0.154264850576751,0.993185359179999,1700,-0.983089092068437,1750,-0.191988699896134,-0.413428171050498,0,NaN
207280074,91,b_3,red,blue,X,color_change,no_figure_change,not_first,no_update,correct,5,1012,3018,1700,0,-0.574879829610309,1.03173474269687,1375,-2.41847498825718,925,0.793814013372249,-0.665515599286598,0,NaN
207280074,92,b_3,red,blue,Y,no_color_change,figure_change,not_first,no_update,correct,15,1021,0,2325,0,1.90484453259418,3.40635282361964,1900,0.217408945548563,50,0.217408945548563,2.31843015960625,0,NaN
207280074,93,b_3,red,blue,Y,no_color_change,no_figure_change,not_first,no_update,correct,525,1533,3538,2300,0,1.41810081325127,3.14297194244847,850,-1.40785062224812,2125,2.50048221716729,-0.528597447271708,0,NaN
207280074,94,b_3,blue,blue,X,color_change,figure_change,not_first,update,correct,21,1030,3033,3200,0,0.407025443905529,1.182739781235,2050,-0.156472187132143,1000,0.147692824426437,0.45828273323783,0,NaN
207280074,95,b_3,blue,blue,Y,no_color_change,figure_change,not_first,update,correct,13,1021,3025,2525,0,-0.0469238394347947,0.571895667888483,1450,-1.17707310167041,425,0.104155166644961,-0.619184507916942,1,175
207280074,96,b_3,red,blue,Y,color_change,no_figure_change,not_first,no_update,correct,22,1029,3033,1975,0,-0.276130152478952,0.902518486146531,225,-1.62777365802604,1725,0.38230133963936,-0.94386130325158,0,NaN
207280074,97,b_3,red,blue,Y,no_color_change,no_figure_change,not_first,no_update,correct,11,1019,3024,2550,0,-0.553348558760158,0.871591185705977,2500,-1.80627406431068,1775,-0.162817271996721,0.871591185705977,0,NaN
207280074,98,b_3,blue,blue,X,color_change,figure_change,not_first,update,correct,21,1028,3034,2375,0,-0.682810103686435,0.40480843312126,1500,-1.83033749936314,1000,0.000558686717635815,-0.88128839087637,0,NaN
207280074,100,b_0,blue,blue,X,no_color_change,no_figure_change,not_first,update,correct,16,1024,3028,2725,0,-1.69910174753477,0.123310139821046,125,-3.07648822304981,2400,-0.451937648373252,-2.40686228576918,0,NaN
207280074,101,b_0,red,blue,Y,color_change,figure_change,not_first,no_update,correct,15,1023,3027,2325,0,-0.578511514134649,0.924027924775509,300,-2.05596712089977,1800,-0.672738620421746,-0.933046724645916,0,NaN
207280074,102,b_0,red,blue,Y,no_color_change,no_figure_change,not_first,no_update,correct,5,1012,3018,2725,0,-0.0216472200149821,1.2042891260581,1450,-1.54325233888657,1950,-1.08720435251928,0.0865166288453165,1,125
207280074,103,b_0,blue,blue,Y,color_change,no_figure_change,not_first,update,correct,16,1022,3027,2975,0,-0.0661572141740688,0.455409487261417,1625,-0.912854190422793,650,-0.182331400919858,0.348820042775328,2,162.5
207280074,105,b_1,blue,blue,Y,no_color_change,no_figure_change,not_first,update,correct,24,1031,3038,2425,0,0.735084566317917,1.80599472095187,1600,-0.479672453284458,775,0.0917842464687398,1.30185977067378,0,NaN
207280074,106,b_1,red,blue,Y,color_change,no_figure_change,not_first,no_update,correct,37,1044,3050,2525,0,0.0348151311704219,0.739022808849823,775,-0.969321455098126,2400,-0.167286765737807,-0.280181388894358,0,NaN
207280074,107,b_1,blue,blue,X,color_change,figure_change,not_first,update,correct,22,1029,3034,2700,0,0.353900222214263,1.74797111470598,1675,-1.03065727545571,2150,0.363146366463275,-0.784595682531258,0,NaN
207280074,108,b_1,red,blue,Y,color_change,figure_change,not_first,no_update,correct,11,1017,3023,2200,0,0.114587654909254,1.22388306736947,1025,-1.83468727452188,1925,0.107906348891945,-1.17831019368804,1,150
207280074,109,b_1,red,blue,X,no_color_change,figure_change,not_first,no_update,correct,22,1028,3033,2675,0,0.878712224345049,2.50407377463781,900,-0.61567276283466,350,-0.21605213494859,2.04686850864113,0,NaN
207280074,110,b_1,blue,blue,Y,color_change,figure_change,not_first,update,correct,9,1015,3021,2725,0,-0.0719004813839353,1.30768607501484,1725,-0.988276897303627,875,-0.0974110198392147,1.0057558103268,0,NaN
207280074,111,b_1,red,blue,X,color_change,figure_change,not_first,no_update,correct,56,1062,3067,2350,0,-0.801980622903773,0.809297616689584,100,-2.02519944523569,1850,-0.258073357353626,-2.0022533836185,0,NaN
207280074,112,b_1,red,blue,Y,no_color_change,figure_change,not_first,no_update,correct,22,1030,3035,2975,0,0.429936436443035,2.72651090064509,2250,-1.51651518882828,1150,-0.0601785407281998,2.30071180941837,0,NaN
207280074,113,b_1,red,blue,X,no_color_change,figure_change,not_first,no_update,correct,15,1022,3027,2650,0,-1.59070201297011,0.255359736153681,2500,-3.7026563149372,975,-0.136997964403123,0.255359736153681,0,NaN
207280074,114,b_1,red,blue,X,no_color_change,no_figure_change,not_first,no_update,correct,22,1029,3034,2875,0,-1.24751493955978,-0.0205915961642911,150,-2.41695855288074,1100,-0.0277348049112061,-1.30477292284431,0,NaN
207280074,115,b_1,blue,blue,Y,color_change,figure_change,not_first,update,correct,63,1071,3076,2750,0,-1.42937658768476,0.946295581092708,1850,-3.97573440127876,900,-1.02926055866163,0.321643924581758,0,NaN
207280074,116,b_1,red,blue,X,color_change,figure_change,not_first,no_update,correct,3,1011,3016,2750,0,NaN,NaN,25,NaN,25,NaN,NaN,0,NaN
207280074,117,b_1,red,blue,Y,no_color_change,figure_change,not_first,no_update,correct,15,1022,3028,2475,0,-0.974808963995255,0.941865993545738,425,-3.15622079889526,1200,-1.56216787489795,-2.20170454181448,0,NaN
207280074,118,b_1,red,blue,Y,no_color_change,no_figure_change,not_first,no_update,correct,30,1037,3043,2100,0,0.588341770602018,3.48564643132981,2125,-1.82239616673389,1600,-0.161699898561449,3.48564643132981,0,NaN
207280074,120,b_2,blue,blue,X,no_color_change,figure_change,not_first,update,correct,22,1029,3034,2275,0,-0.923995473584689,0.469336749008193,1400,-3.32139253634488,2250,0.0561081089282818,-1.38614165264856,0,NaN
207280074,121,b_2,blue,blue,Y,no_color_change,figure_change,not_first,update,correct,13,1021,3026,3025,0,1.88809103338622,3.95953248646732,2100,-0.501820391019306,450,0.504214762666316,3.31903807089198,0,NaN
207280074,122,b_2,red,blue,X,color_change,figure_change,not_first,no_update,correct,21,1028,3034,3100,0,-0.54457483935463,0.848764842671143,950,-3.11100708096088,2300,-0.145497983750011,-2.24635957303123,1,175
207280074,123,b_2,blue,blue,X,color_change,no_figure_change,not_first,update,correct,12,1018,3024,2825,0,-0.316050204826612,1.4414516376945,1925,-2.00005854294207,1225,-0.0997654852921086,-0.573930883788442,0,NaN
207280074,124,b_2,red,blue,Y,color_change,figure_change,not_first,no_update,correct,88,1095,3099,3100,0,-0.240999149571796,0.761928964272891,325,-1.45537889944128,2500,-0.0322042986522926,-1.45537889944128,1,225
207280074,125,b_2,red,blue,X,no_color_change,figure_change,not_first,no_update,correct,10,1016,3022,2975,0,-0.226545045444101,0.747802171555529,625,-2.00217357123027,2325,0.360951525786849,-1.45984839318237,1,250
207280074,126,b_2,blue,blue,Y,color_change,figure_change,not_first,update,correct,25,1034,3038,3150,0,0.312676317505824,1.43263236879468,50,-0.678325487598104,300,1.43263236879468,0.305601634546787,2,150
207280074,127,b_2,red,blue,X,color_change,figure_change,not_first,no_update,correct,7,1014,3021,2825,0,0.449952415989156,1.46124510997646,2100,-0.852037150588724,1475,0.529315758765811,0.45600808017317,1,150
207280074,129,b_3,blue,blue,Y,no_color_change,no_figure_change,not_first,update,correct,156,1163,3170,3025,0,-0.528328382781072,0.557888593753471,1500,-2.13039217292769,750,0.223793936607258,-1.6132078971734,1,150
207280074,130,b_3,red,blue,Y,color_change,no_figure_change,not_first,no_update,correct,10,1017,3021,3325,0,0.0108851198578913,0.715278623350301,1975,-1.09019731707805,825,0.164972206479031,0.0888311881040934,0,NaN
207280074,131,b_3,blue,blue,X,color_change,figure_change,not_first,update,correct,22,1030,3036,3100,0,0.88277620665905,2.32377758961791,475,-0.551224259335958,575,0.0587020115458767,-0.45752451554961,0,NaN
207280074,132,b_3,red,blue,Y,color_change,figure_change,not_first,no_update,correct,8,1017,3023,3250,0,0.116967675060124,0.999849693597514,1350,-0.653783178216243,1700,-7.98123882312929e-05,0.146535544797051,1,150
207280074,133,b_3,red,blue,X,no_color_change,figure_change,not_first,no_update,correct,19,1027,3031,3375,0,0.238790200644924,1.15153313743563,1175,-0.914011470052182,2475,0.16636892327312,-0.749597950290787,0,NaN
207280074,135,b_0,blue,red,X,color_change,no_figure_change,not_first,no_update,correct,23,528,1530,2325,0,0.468123080191468,2.19184771186762,2275,-1.45334368354132,1050,-0.00658452202927917,1.94139643759032,1,200
207280074,136,b_0,red,red,X,color_change,no_figure_change,not_first,update,correct,12,515,1518,2850,0,-0.382382764399073,0.276150863288557,800,-1.42840231221829,1925,-0.659609482557305,-1.41734829644793,1,175
207280074,137,b_0,red,red,Y,no_color_change,figure_change,not_first,update,correct,68,572,1575,3025,0,0.259932824762323,1.76289603130567,2075,-1.35102420182573,850,0.163375958714357,1.00132622277983,0,NaN
207280074,138,b_0,blue,red,X,color_change,figure_change,not_first,no_update,correct,6,509,1511,3325,0,-1.27048157138011,-0.0131291378644414,100,-2.89551363272992,1275,-0.0131291378644414,-0.703586108474066,0,NaN
207280074,139,b_0,red,red,Y,color_change,figure_change,not_first,update,correct,12,515,1518,1900,0,1.04695265477443,1.9304621404023,575,0.144141173150038,1800,0.59152951539397,0.415822542697508,0,NaN
207280074,141,b_1,blue,red,Y,color_change,figure_change,not_first,no_update,correct,6,510,1512,2325,0,0.201898665807986,1.68328317404257,1100,-1.7283771733946,275,-0.471252246325804,0.619703288440461,0,NaN
207280074,142,b_1,blue,red,X,no_color_change,figure_change,not_first,no_update,correct,12,515,1518,3125,0,0.140725901627944,0.939351903316377,1600,-1.44612066240617,2325,-0.00917842464687399,-0.230351854507125,1,225
207280074,143,b_1,blue,red,Y,no_color_change,figure_change,not_first,no_update,correct,5,508,1511,2600,0,-0.389180724102947,0.634867642204862,1050,-2.41224962197495,2300,0.131171660062064,-2.3820406330285,1,150
207280074,144,b_1,blue,red,X,no_color_change,figure_change,not_first,no_update,correct,61,564,1567,2350,0,1.4195866518573,2.41879423781011,900,-0.5982337560056,100,-0.250371461889076,1.63423846147297,1,250
207280074,145,b_1,red,red,X,color_change,no_figure_change,not_first,update,correct,6,510,1513,3225,0,-0.0977770281650541,1.29056631773872,1425,-1.88460992336205,375,0.108105879862529,-0.65019162074573,1,125
207280074,146,b_1,red,red,X,no_color_change,no_figure_change,not_first,update,correct,10,513,0,1925,0,-0.428331034227133,0.295385648852875,550,-2.00045760488324,150,-0.254721237047812,-0.841501915341877,0,NaN
207280074,147,b_1,blue,red,Y,color_change,figure_change,not_first,no_update,correct,691,1194,2197,2850,0,1.03729651422538,2.59426177334187,1725,-0.934443441440005,1300,-0.560801745924,1.75734907032343,0,NaN
207280074,148,b_1,red,red,Y,color_change,no_figure_change,not_first,update,correct,8,511,1513,2450,0,-0.751342828268243,0.778011160501979,650,-2.70611883545139,1400,0.124746762809253,-2.63983464702331,0,NaN
207280074,149,b_1,blue,red,Y,color_change,no_figure_change,not_first,no_update,correct,2,505,0,975,0,-0.383980550281276,1.14566692690046,900,-1.96099037890169,750,-0.087634002280588,-1.68212589441318,1,150
207280074,150,b_1,blue,red,Y,no_color_change,no_figure_change,not_first,no_update,correct,16,520,1523,1525,0,1.01571905679131,2.68401080391065,575,-1.1692115814294,150,-1.1692115814294,-0.973312074509811,1,125
207280074,152,b_2,red,red,X,no_color_change,no_figure_change,not_first,update,correct,5,508,1511,3075,0,0.320996557432751,1.4611253913941,1300,-1.28637616735645,1975,0.198852565284231,-0.120556612426984,0,NaN
207280074,153,b_2,blue,red,Y,color_change,figure_change,not_first,no_update,correct,11,515,1518,1825,0,1.26201373365553,2.29193244671267,1775,-0.397066631462592,350,-0.0861973792923818,2.29193244671267,1,175
207280074,154,b_2,blue,red,Y,no_color_change,no_figure_change,not_first,no_update,correct,3,506,1509,2775,0,0.257701705727609,1.74693355365894,525,-1.60115622655011,2075,-0.662562540921951,0.383458619268748,0,NaN
207280074,155,b_2,blue,red,X,no_color_change,figure_change,not_first,no_update,correct,11,515,1517,3100,0,-1.39163312117905,0.195979319307818,50,-2.46229198939747,2250,0.195979319307818,-1.02360718116174,0,NaN
207280074,156,b_2,red,red,X,color_change,no_figure_change,not_first,update,correct,4,508,1511,2325,0,-0.0586052824014413,1.27368599762729,825,-1.24387607062201,1500,0.69760017935654,-0.414306107321068,0,NaN
207280074,157,b_2,red,red,X,no_color_change,no_figure_change,not_first,update,correct,59,563,1565,2250,0,-0.471184405795805,1.34882936114931,300,-2.72575268295687,1825,-0.0649672840222211,-0.109821846209553,1,125
207280074,158,b_2,red,red,Y,no_color_change,figure_change,not_first,update,correct,3,507,1509,2400,0,0.274209593220581,1.98916415194818,625,-1.49839777669924,925,0.0123709201762214,0.813288236101269,1,225
207280074,159,b_2,red,red,X,no_color_change,figure_change,not_first,update,correct,8,511,1514,2750,0,-0.151258180860412,1.50765601373434,1175,-2.07352584631118,850,0.592527170246891,-1.12794857671258,0,NaN
207280074,160,b_2,red,red,Y,no_color_change,figure_change,not_first,update,correct,70,573,1575,1925,0,1.89429169813738,3.25850037441673,1050,-0.117164585927052,700,0.359235559439825,0.193066167137288,0,NaN
207280074,161,b_2,red,red,Y,no_color_change,no_figure_change,not_first,update,correct,43,546,1549,2675,0,0.681638989006387,2.78265891576749,1175,-2.18550262700305,200,-2.18550262700305,1.07523249428423,1,175
207280074,163,b_3,blue,red,Y,color_change,no_figure_change,not_first,no_update,correct,7,510,0,2375,0,0.0520024408080266,0.850121653271115,900,-1.31131753867947,2025,0.09633355259806,-0.151364194285187,0,NaN
207280074,164,b_3,red,red,X,color_change,figure_change,not_first,update,correct,344,848,82,1250,0,0.571803639318377,1.99331439613633,250,-1.04689909646127,900,1.88476954813851,0.544360393947861,0,NaN
207280074,165,b_3,red,red,X,no_color_change,no_figure_change,not_first,update,correct,913,1416,2418,2950,0,1.38866057999236,4.16357285698674,125,-1.01541310930308,950,3.47136001383598,0.929973947698919,0,NaN
207280074,166,b_3,red,red,Y,no_color_change,figure_change,not_first,update,correct,11,514,1516,2850,0,-0.427137359554678,0.678325487598104,1950,-1.93952084646682,975,0.0482066824931469,-0.549628011571284,0,NaN
207280074,167,b_3,blue,red,X,color_change,figure_change,not_first,no_update,correct,11,514,1518,2525,0,-2.33617511392354,0.680640046856881,50,-5.0308541737281,2075,0.680640046856881,-2.34512740347042,0,NaN
207280074,168,b_3,red,red,X,color_change,no_figure_change,not_first,update,correct,5,508,1511,3175,0,1.13567868867802,2.2247304158199,1925,-0.386132334274577,2325,0.307916193805564,0.595799478164472,0,NaN
207280074,169,b_3,red,red,X,no_color_change,no_figure_change,not_first,update,correct,11,514,1516,3000,0,-1.71711334778547,0.125584792885706,75,-3.91719201450935,1100,0.101720888803832,-1.31510862712058,0,NaN
207280074,170,b_3,red,red,X,no_color_change,no_figure_change,not_first,update,correct,6,510,1513,2625,0,0.927412292510913,2.30861323585351,1775,-0.876619366164699,2425,1.29571421677979,-0.623374658299211,0,NaN
207280074,171,b_3,blue,red,Y,color_change,figure_change,not_first,no_update,correct,35,538,1540,2500,0,1.20569269543098,2.37765095167565,1050,-0.394073666903829,250,-0.0876340022805882,1.08532876139579,1,125
207280074,172,b_3,red,red,X,color_change,figure_change,not_first,update,correct,4,507,1509,3000,0,0.342485438325367,1.50953160485784,2400,-1.50765601373434,2450,-0.323439703317016,-1.20684312248158,1,200
207280074,173,b_3,blue,red,Y,color_change,figure_change,not_first,no_update,correct,44,548,1550,2200,0,1.10726401725517,2.87947134269495,2200,-0.89341987388789,1625,0.543721894841989,2.43268159336277,0,NaN
207280074,174,b_3,red,red,X,color_change,figure_change,not_first,update,correct,2,506,1509,1950,0,1.02713171669085,2.11031935728691,1650,-0.134683405144347,1575,0.072629273292655,1.65798264697249,0,NaN
207280074,175,b_3,red,red,Y,no_color_change,figure_change,not_first,update,correct,7,512,1514,2750,0,-1.98510540984148,-0.288322252494194,50,-3.77301093516519,675,-0.288322252494194,-2.05405162358216,1,175
207280074,176,b_3,blue,red,X,color_change,figure_change,not_first,no_update,correct,1,504,1508,2750,0,-0.96649013078018,0.427594869961977,175,-2.9847837889693,775,-0.0982091437215516,-1.77630451252893,1,125
207280074,178,b_0,blue,red,Y,color_change,figure_change,not_first,no_update,correct,23,1031,3036,2250,0,-0.773356324659328,0.165890048943718,375,-2.50147987202021,1450,-0.204279807684121,-0.418695788673921,0,NaN
207280074,179,b_0,red,red,Y,color_change,no_figure_change,not_first,update,correct,12,1019,3025,1625,0,-0.5185728866027,0.600747846234961,1100,-2.20118576129097,425,-0.257554576830107,-1.81736798627517,0,NaN
207280074,180,b_0,red,red,X,no_color_change,figure_change,not_first,update,correct,21,1029,3034,1975,0,1.18246964699791,2.14906827177437,1125,-0.255838610483083,1900,0.00303287075288017,0.147892355397022,0,NaN
207280074,181,b_0,red,red,X,no_color_change,no_figure_change,not_first,update,correct,21,1028,3034,2425,0,0.374666914441151,1.76393359235271,900,-1.52984385766331,2025,0.0394672259815582,-0.287564034805974,0,NaN
207280074,183,b_1,blue,red,Y,color_change,figure_change,not_first,no_update,correct,9,1017,3023,2250,0,-0.795504870203874,0.312744843293702,1550,-2.21567170975538,900,-0.161141211843814,-0.870952686600107,0,NaN
207280074,184,b_1,blue,red,Y,no_color_change,no_figure_change,not_first,no_update,correct,23,1029,3036,1175,0,-0.507564280394254,0.465146598625927,150,-1.64058354633755,750,0.208669489036974,-1.02594834454993,0,NaN
207280074,185,b_1,blue,red,X,no_color_change,figure_change,not_first,no_update,correct,309,1317,3323,1500,0,-0.0699981699856269,0.95970406231597,950,-1.84466382305108,1400,0.800957222119167,-1.61145202463225,1,225
207280074,186,b_1,blue,red,Y,no_color_change,figure_change,not_first,no_update,correct,22,1029,3034,1950,0,1.20100556254731,2.66002718124643,1275,-0.599630472799689,100,-0.381223872398205,1.17164585927052,0,NaN
207280074,187,b_1,blue,red,X,no_color_change,figure_change,not_first,no_update,correct,7,1014,3019,1750,0,-0.513061395813533,1.22998871506935,1700,-3.01180028238641,400,-0.16106139945558,1.11430065832462,0,NaN
207280074,188,b_1,red,red,X,color_change,no_figure_change,not_first,update,correct,18,1025,3030,2100,0,-0.307669155461031,0.863649853076725,600,-1.10931238406001,850,0.168044983426028,-0.709212881844541,0,NaN
207280074,190,b_2,blue,red,X,color_change,no_figure_change,not_first,no_update,correct,17,1023,3029,2175,0,0.504440115291917,1.37145617321356,1225,-0.535102156912753,1950,-0.368453890280815,-0.0830048837630343,0,NaN
207280074,191,b_2,blue,red,X,no_color_change,no_figure_change,not_first,no_update,correct,5,1012,3018,1050,0,-0.423648907481805,1.25504980497473,400,-1.98054441401894,350,-0.102119950745002,1.098378086872,0,NaN
207280074,192,b_2,blue,red,X,no_color_change,no_figure_change,not_first,no_update,correct,14,1021,3027,2200,0,0.220629783545323,1.34679414524935,2200,-1.29228228408574,600,0.294906774523473,1.03041783829101,0,NaN
207280074,193,b_2,red,red,X,color_change,no_figure_change,not_first,update,correct,4,1010,3016,2225,0,-0.59484445038254,0.272040525294521,1575,-2.04950231745284,1925,0.0705541511985791,-0.193624853854924,0,NaN
207280074,194,b_2,blue,red,X,color_change,no_figure_change,not_first,no_update,correct,22,1029,3036,2600,0,0.312552971087645,1.41619101681854,1200,-0.821708443059923,2000,-0.42667702749729,-0.106350007321388,0,NaN
207280074,195,b_2,blue,red,Y,no_color_change,figure_change,not_first,no_update,correct,25,1032,3038,1725,0,0.123312453223604,1.07367615271367,900,-1.48123811322899,1625,-0.364543083257365,-1.41631073540089,0,NaN
207280074,197,b_3,blue,red,Y,color_change,figure_change,not_first,no_update,correct,26,1034,3039,2700,0,0.296762614096341,1.70120105520103,2075,-1.36842330246068,2500,0.0520775833224807,-1.36842330246068,0,NaN
207280074,198,b_3,blue,red,X,no_color_change,figure_change,not_first,no_update,correct,15,1021,3026,2525,0,0.0934328963064963,1.25832211289231,1325,-1.31287388025003,550,0.425958716003187,0.203800933354719,0,NaN
207280074,199,b_3,red,red,Y,color_change,figure_change,not_first,update,correct,22,1030,3034,1875,0,0.274222962694398,2.20022801263216,1675,-1.48459023353481,725,-0.395470383697918,0.417817852403351,0,NaN
207280074,200,b_3,blue,red,X,color_change,figure_change,not_first,no_update,correct,113,1120,3126,2225,0,-0.53408908375756,0.760532247478802,1675,-2.54062784844884,2225,-0.369371732745503,-2.54062784844884,0,NaN
207280074,201,b_3,blue,red,X,no_color_change,no_figure_change,not_first,no_update,correct,22,1030,3036,2525,0,1.4569161023269,2.32206162327088,1125,-0.158188153479167,2125,0.207991083736988,2.09499537874605,0,NaN
207280074,202,b_3,blue,red,X,no_color_change,no_figure_change,not_first,no_update,correct,12,1018,3025,1875,0,-1.08614683837519,-0.0964931773745274,125,-2.02128863821224,600,-0.558686717635808,-1.56388384124498,1,125
207280074,203,b_3,red,red,Y,color_change,figure_change,not_first,update,correct,39,1046,3051,2300,0,0.449521788775563,1.87854418185629,1075,-0.930851883969489,1700,-0.374120569845407,1.59109986563266,0,NaN
207280074,204,b_3,red,red,X,no_color_change,figure_change,not_first,update,correct,22,1029,3033,2475,0,0.493688485952843,1.98114300693069,1825,-1.1779909441351,2450,0.136399371491371,-1.08042029951942,1,225
207280074,205,b_3,blue,red,X,color_change,no_figure_change,not_first,no_update,correct,132,1139,3145,1975,0,0.578037128839491,1.64433472858453,1375,-0.530991818918718,625,0.364702708033832,0.252805739730203,0,NaN
207280074,206,b_3,red,red,X,color_change,no_figure_change,not_first,update,correct,90,1098,3103,2150,0,0.324930082296121,1.25852164386289,2100,-0.60821030453481,1600,0.105911039186102,0.131051941479714,0,NaN
207280074,207,b_3,red,red,Y,no_color_change,figure_change,not_first,update,correct,20,1027,3034,2225,0,0.466728498096087,1.42572859721246,625,-0.844095817959472,775,-0.176465190384682,-0.627006121963844,1,175
207280074,208,b_3,red,red,X,no_color_change,figure_change,not_first,update,correct,6,1013,3018,2850,0,0.841788124282478,1.76999933385847,1850,-0.106788975456673,200,-0.106788975456673,0.648156404845771,1,175
207280074,209,b_3,red,red,Y,no_color_change,figure_change,not_first,update,correct,15,1023,3030,2900,0,-0.485359287492543,0.293270620564682,350,-2.65172669287013,2350,0.169601324996585,-2.57143543030704,1,125
207280074,210,b_3,red,red,Y,no_color_change,no_figure_change,not_first,update,correct,5,1012,3017,2275,0,0.235232542841804,1.65211643643732,1525,-1.38330831286626,2125,-0.0347183888816538,-1.03101643120277,1,150
207601006,2,b_0,blue,blue,Y,no_color_change,no_figure_change,not_first,update,correct,17,1024,3030,2325,0,0.324568236750248,1.74873048415447,350,-1.04105770300897,1950,0,-0.566331233332531,1,125
207601006,3,b_0,red,blue,X,color_change,figure_change,not_first,no_update,correct,61,1070,3074,1025,0,0.743498836773897,2.28410613689981,400,-0.865085991301698,800,0,1.80655877498761,0,NaN
207601006,4,b_0,red,blue,X,no_color_change,no_figure_change,not_first,no_update,correct,132,1138,3144,850,0,0.878620200341944,3.11645493146542,675,-2.03467987605339,750,1.91701897621959,2.03464275905029,0,NaN
207601006,5,b_0,blue,blue,X,color_change,no_figure_change,not_first,update,correct,28,1035,3041,1050,0,0.784294949646948,2.31109019815507,950,-0.34500254383444,450,0.480590956166576,1.13871253817071,1,275
207601006,6,b_0,red,blue,Y,color_change,figure_change,not_first,no_update,correct,18,1025,3031,3275,0,-2.30578816288521,0.0652516914535712,2150,-4.49902618001722,525,-2.15831661338664,-2.54930712406464,0,NaN
207601006,7,b_0,red,blue,X,no_color_change,figure_change,not_first,no_update,correct,5,1013,3017,3000,0,-0.487294801419935,0.740261509869183,1750,-1.4706870139163,2425,-0.840811471272895,0.0258705511621952,0,NaN
207601006,8,b_0,blue,blue,X,color_change,no_figure_change,not_first,update,correct,22,1028,3035,2800,0,0.369707584349719,1.80574220091936,1400,-0.829899072360864,2425,0.564809436205343,-0.273255376837993,1,150
207601006,9,b_0,red,blue,Y,color_change,figure_change,not_first,no_update,correct,5,1011,3017,2575,0,-0.845920755373183,2.04158363863039,2500,-2.9379592635472,500,-0.813604707999022,-1.55156496367587,1,225
207601006,10,b_0,blue,blue,Y,color_change,no_figure_change,not_first,update,correct,15,1022,3026,2175,0,0.564650609959511,3.28040073416759,1575,-1.76498773151321,500,-0.554305324327436,0.0762012073687041,0,NaN
207601006,11,b_0,blue,blue,Y,no_color_change,no_figure_change,not_first,update,correct,3,1011,3015,1850,0,-0.555217700390177,1.98616795299889,1025,-2.6126287313569,1600,-1.09157394423099,0.0891550414513527,0,NaN
207601006,12,b_0,red,blue,X,color_change,figure_change,not_first,no_update,correct,14,1021,3026,1625,0,-1.4592294590212,2.40662936413999,500,-4.51283370517122,1475,-0.53325998356852,-2.49712061770302,0,NaN
207601006,13,b_0,blue,blue,X,color_change,no_figure_change,not_first,update,correct,22,1030,3036,2400,0,-0.831009876005785,2.25032966407686,225,-2.91672833777277,400,1.23866862752479,-1.69483659565015,0,NaN
207601006,15,b_1,red,blue,Y,color_change,no_figure_change,not_first,no_update,correct,17,1023,3028,550,0,-0.746953175285599,0.456873191184305,200,-2.27315662098468,400,-0.0560837916873413,-0.408583970148414,0,NaN
207601006,16,b_1,red,blue,X,no_color_change,figure_change,not_first,no_update,correct,23,1032,3037,1600,0,1.39064129696065,3.7407629236435,150,-0.427439407724304,800,3.32171195862028,0.260561361777059,0,NaN
207601006,17,b_1,blue,blue,X,color_change,no_figure_change,not_first,update,correct,4,1010,3017,2550,0,-0.41650495910746,1.54640570024467,625,-2.10301227876444,1125,0.775299960797608,-1.37789450616094,0,NaN
207601006,18,b_1,red,blue,X,color_change,no_figure_change,not_first,no_update,correct,15,1023,3029,2325,0,-1.44698155402745,0.989427951693884,1375,-3.48565776132245,1050,-2.76414033801985,-0.740929615925022,0,NaN
207601006,19,b_1,blue,blue,Y,color_change,figure_change,not_first,update,correct,20,1028,3032,1950,0,-1.11885398979304,0.718659414063735,1675,-2.7147004898878,1825,-1.0155954388809,0.274740056962079,0,NaN
207601006,20,b_1,blue,blue,Y,no_color_change,no_figure_change,not_first,update,correct,13,1020,3026,2400,0,-1.6855405445469,1.51797407586843,350,-3.34353675644434,2000,-1.87433442265213,-1.02706459283946,1,225
207601006,21,b_1,red,blue,Y,color_change,no_figure_change,not_first,no_update,correct,57,1065,3071,1925,0,-2.17114004957681,1.23681277736968,100,-4.5904082416547,1550,0.0299905385065351,-0.901237952323185,0,NaN
207601006,22,b_1,red,blue,Y,no_color_change,no_figure_change,not_first,no_update,correct,22,1028,3033,1250,0,-0.777206003263729,0.554490909342947,1075,-1.98598236798338,300,-1.44425970770757,-0.754625790069714,1,150
207601006,23,b_1,red,blue,Y,no_color_change,no_figure_change,not_first,no_update,correct,23,1029,3035,2025,0,-0.385006883190247,2.70902158841317,450,-2.32074061896163,1350,0.70110307159642,-0.587673510116265,0,NaN
207601006,24,b_1,red,blue,Y,no_color_change,no_figure_change,not_first,no_update,correct,10,1017,3022,2850,0,0.136225719172635,1.33988669498434,1750,-1.36315905592938,275,-1.19698623304108,0.367977968754667,1,200
207601006,25,b_1,red,blue,X,no_color_change,figure_change,not_first,no_update,correct,21,1029,3033,3325,0,-0.813105772178445,0.976993755654666,2425,-2.23422088473053,1475,-0.527878018118709,-0.33989276974071,1,250
207601006,26,b_1,blue,blue,X,color_change,no_figure_change,not_first,update,correct,8,1015,3020,2975,0,0.196815665162226,2.89679650710692,75,-1.26008513831473,2450,-0.758671543407847,0.968828014972194,0,NaN
207601006,27,b_1,red,blue,Y,color_change,figure_change,not_first,no_update,correct,19,1026,3032,2900,0,1.5733355559756,4.50002833910098,950,-0.638709389381714,2125,0.351275317358702,1.92499913188656,0,NaN
207601006,28,b_1,red,blue,Y,no_color_change,no_figure_change,not_first,no_update,correct,6,1015,3020,2925,0,1.20020769491428,3.26577663494535,300,-0.114283252551507,425,0.0248312750753351,1.33947840795022,1,200
207601006,29,b_1,red,blue,Y,no_color_change,no_figure_change,not_first,no_update,correct,90,1096,3102,3250,0,0.371062722458028,2.01716065058918,1225,-0.635405976105623,2525,0.324217022097238,-0.592832773547463,0,NaN
207601006,30,b_1,red,blue,Y,no_color_change,no_figure_change,not_first,no_update,correct,3,1011,3015,2850,0,0.776079050367673,3.58372088351832,75,-0.845117043632744,2100,0.984936794318524,-0.22388976271214,0,NaN
207601006,31,b_1,red,blue,X,no_color_change,figure_change,not_first,no_update,correct,16,1023,3028,3275,0,-0.601551226830585,2.23830375507176,250,-2.91223718039741,500,-1.81817639695858,-1.08170082140582,0,NaN
207601006,32,b_1,blue,blue,Y,color_change,figure_change,not_first,update,correct,3,1009,3014,2800,0,-3.43380971792972,-0.271882047723213,50,-5.46841095003595,650,-0.271882047723213,-1.99388828964414,0,NaN
207601006,33,b_1,red,blue,X,color_change,figure_change,not_first,no_update,correct,14,1022,3027,2675,0,1.0232766373001,3.59103293312944,1025,-1.20667377085074,200,0.631768509801613,0.062876203255034,0,NaN
207601006,35,b_2,blue,blue,X,no_color_change,figure_change,not_first,update,correct,14,1021,3027,3275,0,-0.307749200057533,0.939579816527703,1475,-1.38045557937498,850,0.908067480893982,0.031697920649232,0,NaN
207601006,36,b_2,red,blue,X,color_change,no_figure_change,not_first,no_update,correct,48,1055,3061,2125,0,0.817836930090836,3.41305690325466,300,-1.0900521471038,1625,0.917643667694335,-0.0936090818236102,0,NaN
207601006,37,b_2,blue,blue,X,color_change,no_figure_change,not_first,update,correct,20,1026,3032,3375,0,1.27205776053319,3.08416313876655,575,-0.237585936856831,1175,1.05783458841114,2.32396979823151,0,NaN
207601006,38,b_2,red,blue,Y,color_change,figure_change,not_first,no_update,correct,22,1029,3034,3450,0,-0.529554898169749,0.699172987435109,1975,-1.48185923185004,2275,0.236583777773073,-1.38008440934396,1,225
207601006,39,b_2,red,blue,X,no_color_change,figure_change,not_first,no_update,correct,10,1017,3021,2825,0,0.229100842949649,1.92833966216575,175,-0.893406264668634,1650,0.133435626152212,-0.357399622870556,1,175
207601006,40,b_2,red,blue,Y,no_color_change,figure_change,not_first,no_update,correct,23,1029,3034,2950,0,-0.879032429596019,1.51374273751479,1400,-2.89946893133027,2475,-1.44355448464863,0.442471793980673,0,NaN
207601006,42,b_3,blue,blue,X,no_color_change,figure_change,not_first,update,correct,15,1024,3029,2325,0,0.173614782010284,2.00784428281054,1925,-1.54948641150215,2225,-0.292147931416985,-0.264792700130704,1,125
207601006,43,b_3,blue,blue,Y,no_color_change,figure_change,not_first,update,correct,19,1026,3032,2700,0,2.01935422872301,3.84276044816819,2000,-0.379001718676004,2175,2.58096792771077,0.331380603695952,0,NaN
207601006,44,b_3,red,blue,X,color_change,figure_change,not_first,no_update,correct,22,1029,3034,2875,0,1.7013140639341,4.49316169352708,2300,-0.606046426651826,875,-0.141861185856399,2.86806794670586,0,NaN
207601006,46,b_4,red,blue,X,color_change,no_figure_change,not_first,no_update,correct,8,1014,3020,2550,0,1.53946665813997,4.13654152772167,1775,-0.965895771727124,2000,0.220066711392619,1.1904907574982,0,NaN
207601006,47,b_4,blue,blue,Y,color_change,figure_change,not_first,update,correct,15,1023,3028,2475,0,-1.48152442133227,1.1177785484211,1175,-3.48023867886954,900,0.0172965234455995,-2.84490693677012,0,NaN
207601006,48,b_4,blue,blue,X,no_color_change,figure_change,not_first,update,correct,20,1028,3033,2800,0,1.6818717367151,4.22747818532193,1950,-0.543875446455733,375,0.0133621211167723,0.234876395630375,0,NaN
207601006,49,b_4,red,blue,X,color_change,no_figure_change,not_first,no_update,correct,15,1022,3028,3275,0,0.723180338540592,2.90629845990107,750,-2.36082698231194,1350,-0.0261303701839103,1.10545570339119,0,NaN
207601006,50,b_4,blue,blue,X,color_change,no_figure_change,not_first,update,correct,5,1011,3016,2425,0,1.53746624223981,3.60276190610972,600,-0.625607087286655,100,-0.355914942746468,0.904801184620995,0,NaN
207601006,51,b_4,red,blue,Y,color_change,figure_change,not_first,no_update,correct,15,1023,3028,3050,0,0.753369324390444,1.68592851490564,1325,0.0116918559771757,50,0.0116918559771757,0.425286621544379,1,200
207601006,52,b_4,blue,blue,Y,color_change,no_figure_change,not_first,update,correct,21,1028,3033,2900,0,0.547125205450112,1.23491981021147,2175,-0.113206859461543,200,0.0239404670008836,0.853579720340033,0,NaN
207601006,53,b_4,blue,blue,Y,no_color_change,no_figure_change,not_first,update,correct,15,1021,3027,3075,0,0.125062985739576,1.43820963620192,1625,-0.817501993324748,425,-0.402051377602437,0.100253025378894,0,NaN
207601006,54,b_4,red,blue,Y,color_change,no_figure_change,not_first,no_update,correct,22,1029,3034,3025,0,-0.220808867707122,0.756741459246536,2325,-1.07943668421659,2100,-0.187700684687548,-0.558907832712102,2,187.5
207601006,55,b_4,blue,blue,X,color_change,figure_change,not_first,update,correct,12,1019,3024,3000,0,0.16498647527034,1.40061011205945,475,-1.04220833010513,625,-0.570822390707891,0.919514364650684,1,375
207601006,57,b_0,blue,red,Y,color_change,figure_change,not_first,no_update,correct,19,1028,3033,2675,0,-0.99444866947984,0.482112753293764,1175,-2.69669874338326,1075,0.0564178447152607,-0.433934883267179,0,NaN
207601006,58,b_0,blue,red,Y,no_color_change,no_figure_change,not_first,no_update,correct,12,1019,3024,3250,0,0.48825727103503,1.65749689052939,1900,-0.292556218451108,500,-0.12890735177375,0.715096181765929,0,NaN
207601006,59,b_0,red,red,X,color_change,figure_change,not_first,update,correct,21,1029,3035,3050,0,-1.14422018693796,0.204403336083516,1725,-2.61518980457094,2275,-0.0654372764690796,-1.91393826496211,0,NaN
207601006,60,b_0,blue,red,X,color_change,no_figure_change,not_first,no_update,correct,10,1016,3022,2900,0,0.350465848195339,1.62791463905699,2450,-0.297455662860592,2425,0.528063603134219,0.992224099260911,1,150
207601006,61,b_0,blue,red,Y,no_color_change,figure_change,not_first,no_update,correct,22,1028,3033,3175,0,1.39395734862224,3.01627614009273,1925,0.00115062709616653,150,0.129018702783057,2.09633121820606,0,NaN
207601006,62,b_0,blue,red,X,no_color_change,figure_change,not_first,no_update,correct,9,1016,3021,3275,0,0.0757910828591793,0.356620165805411,1000,-0.299200162006392,1700,-0.233800002540412,0.184954026457989,2,212.5
207601006,63,b_0,blue,red,X,no_color_change,no_figure_change,not_first,no_update,correct,20,1027,3033,3225,0,-0.417080823898164,0.660200134177856,625,-1.2163984256635,1025,0.0833647889674181,-0.131394190981594,1,125
207601006,64,b_0,blue,red,X,no_color_change,no_figure_change,not_first,no_update,correct,7,1014,3020,2650,0,0.408413084936112,2.63560415627712,1925,-1.03838527878561,600,1.82274178834015,0.0758300373376827,0,NaN
207601006,65,b_0,blue,red,X,no_color_change,no_figure_change,not_first,no_update,correct,17,1025,3030,3075,0,0.327189506053592,1.09951698289485,575,-0.385088907184756,1125,-0.0404946503844403,0.646875130064186,1,125
207601006,66,b_0,blue,red,X,no_color_change,no_figure_change,not_first,no_update,correct,4,1012,3017,3000,0,0.219873592727964,0.831272401475643,2150,-0.624827630221512,1325,-0.102108875534001,0.0231238929326364,1,300
207601006,67,b_0,blue,red,X,no_color_change,no_figure_change,not_first,no_update,correct,15,1021,3026,2975,0,0.427669827139601,1.91137719174807,1000,-0.832868432609036,600,0.879969909545658,1.00123115868037,0,NaN
207601006,69,b_1,red,red,Y,no_color_change,figure_change,not_first,update,correct,7,1016,3022,2950,0,-0.0624779610864363,1.65820211358834,2450,-1.02138569136483,1050,-0.358179079935701,-0.0779951958519737,0,NaN
207601006,70,b_1,red,red,X,no_color_change,figure_change,not_first,update,correct,20,1026,3032,2725,0,-1.57074342942728,0.594391687677753,900,-2.8877028413469,2550,-0.438945678685969,-2.8877028413469,0,NaN
207601006,71,b_1,blue,red,X,color_change,no_figure_change,not_first,no_update,correct,7,1014,3018,3225,0,-0.428541525469882,1.11900340952347,600,-2.05713566293019,525,-0.378333612620166,-1.04944614571005,2,212.5
207601006,72,b_1,red,red,Y,color_change,figure_change,not_first,update,correct,15,1022,3027,2925,0,-0.348317165710477,0.354912783662712,2300,-0.984491390281299,1625,-0.147057566290699,0.175736637354291,0,NaN
207601006,73,b_1,blue,red,Y,color_change,no_figure_change,not_first,no_update,correct,5,1012,3018,3450,0,0.205731830798506,0.8789677504619,1275,-0.615956666480099,625,-0.0565663127276692,0.512251759812706,1,200
207601006,75,b_2,red,red,Y,no_color_change,figure_change,not_first,update,correct,6,1014,3019,2875,0,-0.352151793125025,1.00100845666175,1750,-1.55854296025908,2450,0.0939802518546316,0.0558239726656264,0,NaN
207601006,76,b_2,red,red,Y,no_color_change,no_figure_change,not_first,update,correct,14,1020,3026,3100,0,-1.34583236447856,-0.196089127388633,2225,-1.95135220408908,1325,-1.75036363229096,-1.09981729319267,1,275
207601006,77,b_2,red,red,Y,no_color_change,no_figure_change,not_first,update,correct,4,1012,3018,2800,0,0.0792174232396036,1.31628028101137,1800,-1.12074790866927,675,0.352574412467277,-0.625978257317678,1,225
207601006,78,b_2,blue,red,Y,color_change,no_figure_change,not_first,no_update,correct,15,1023,3027,2700,0,0.307097815027844,2.96264207061013,1750,-1.3097476884654,2475,-0.158823656274079,-0.950232396418019,1,150
207601006,80,b_3,blue,red,X,color_change,figure_change,not_first,no_update,correct,15,1024,3029,3250,0,NaN,NaN,25,NaN,25,NaN,NaN,0,NaN
207601006,81,b_3,red,red,Y,color_change,figure_change,not_first,update,correct,3,1011,3017,2850,0,-0.642877334834021,0.608681733872079,2175,-1.9984165640226,1950,-0.144682078092162,-1.3962674226965,0,NaN
207601006,82,b_3,blue,red,Y,color_change,no_figure_change,not_first,no_update,correct,15,1022,3027,2125,0,1.03883333403735,2.88117024880092,1950,-0.0520009213461055,275,0.17025569322954,1.92763443910681,1,225
207601006,83,b_3,red,red,Y,color_change,no_figure_change,not_first,update,correct,22,1028,3033,2900,0,-1.16979894700646,1.29308215407253,1575,-2.58887384937152,550,0.400195527447329,-2.2008898159448,0,NaN
207601006,84,b_3,red,red,Y,no_color_change,no_figure_change,not_first,update,correct,11,1019,3025,2775,0,0.795107210631266,3.00347077402249,2000,-1.34846072270093,2025,1.99340576860381,1.39069987223118,0,NaN
207601006,85,b_3,blue,red,X,color_change,figure_change,not_first,no_update,correct,18,1025,3030,2800,0,-0.436762757909466,1.87607892179793,2500,-1.82070035316953,1150,1.39730669878336,-0.14379127001771,0,NaN
207601006,86,b_3,blue,red,Y,no_color_change,figure_change,not_first,no_update,correct,6,1013,3018,2650,0,0.588623117403553,1.94522789857723,125,-0.618443505687941,2300,1.32890006206611,0.00389728532572753,1,300
207601006,87,b_3,red,red,Y,color_change,no_figure_change,not_first,update,correct,16,1024,3030,3075,0,-0.159516935742913,1.8306477100009,1175,-1.75303605651432,2550,0.075161931281844,-1.75303605651432,0,NaN
207601006,88,b_3,red,red,Y,no_color_change,no_figure_change,not_first,update,correct,4,1011,3016,3000,0,-0.134796644181804,1.01192085557378,1600,-1.09075737016274,100,-1.02094028732761,-0.49710802254703,0,NaN
207601006,89,b_3,red,red,X,no_color_change,figure_change,not_first,update,correct,16,1023,3029,2775,0,0.817233275672162,1.78762910340552,250,-0.0214907447961421,100,0.595134027739796,0.43838627242493,1,350
207601006,90,b_3,red,red,Y,no_color_change,figure_change,not_first,update,correct,2,1009,3014,2625,0,0.760160633472896,2.96780133404132,1775,-1.10861064865487,650,-0.138372187564797,2.52867007033984,0,NaN
207601006,91,b_3,red,red,Y,no_color_change,no_figure_change,not_first,update,correct,15,1021,3026,3300,0,0.684420081187247,2.59347635775619,1700,-0.497924596615277,1450,-0.239330436002632,0.230014068223994,1,375
207601006,92,b_3,red,red,Y,no_color_change,no_figure_change,not_first,update,correct,22,1030,3036,2800,0,0.0804560654074826,1.81316560153979,1175,-1.33149825228325,2075,0.340734088477693,1.5088061761022,0,NaN
207601006,93,b_3,blue,red,X,color_change,figure_change,not_first,no_update,correct,13,1020,3024,2925,0,-0.807357803901164,0.187663567684446,1375,-1.8080434551117,175,-1.41864897556709,-0.870505073754611,2,162.5
207601006,94,b_3,blue,red,X,no_color_change,no_figure_change,not_first,no_update,correct,22,1031,3036,3075,0,0.247458937183642,1.29582881230209,2425,-0.826521425078569,2475,-0.198724434608885,-0.531746434664244,1,225
207601006,95,b_3,red,red,Y,color_change,figure_change,not_first,update,correct,11,1018,3023,2850,0,-0.765150849167193,0.785692721666209,2350,-1.64647314060806,1350,-0.0995849193230555,-0.731464780133975,0,NaN
207601006,96,b_3,red,red,Y,no_color_change,no_figure_change,not_first,update,correct,22,1028,3034,2625,0,0.0886387108636446,3.02629773093031,125,-1.53063097392626,1200,0.876332443241648,1.97677735121405,1,125
207601006,97,b_3,red,red,X,no_color_change,figure_change,not_first,update,correct,9,1015,3020,1775,0,1.17155376707043,2.97975300904022,1150,0.0440578826822464,825,0.152328180731204,0.836357430900637,0,NaN
207601006,98,b_3,blue,red,Y,color_change,figure_change,not_first,no_update,correct,16,1023,3029,750,0,0.548823526938247,3.10561676655959,575,-1.37681811307097,725,-0.170998033291583,1.38843573504194,0,NaN
207601006,99,b_3,blue,red,Y,no_color_change,no_figure_change,not_first,no_update,correct,21,1028,0,1500,0,2.14645867454813,4.00707742090139,975,0.412444138471037,425,0.725860112665551,2.55331576039967,0,NaN
207601006,100,b_3,red,red,Y,color_change,no_figure_change,not_first,update,correct,527,1534,4,600,0,-0.261756175781681,1.16484290835462,300,-1.25381236479046,600,0.0879301803489819,-1.25381236479046,0,NaN
207601006,101,b_3,blue,red,X,color_change,figure_change,not_first,no_update,correct,769,1776,3782,475,0,-1.02191770174263,0.754700024075918,100,-2.1126255825679,425,0.0796159716541014,-1.3980861558485,0,NaN
207601006,102,b_3,red,red,Y,color_change,figure_change,not_first,update,correct,433,1440,0,575,0,1.51246051377126,2.71006086450003,400,-0.335203655015473,300,2.12873436191423,0.00764610263904175,0,NaN
207601006,103,b_3,red,red,Y,no_color_change,no_figure_change,not_first,update,correct,644,1652,120,1175,0,1.42564714443459,3.67569681720544,350,0.054005239513619,75,2.69669874338326,0.833165368633853,0,NaN
207601006,104,b_3,red,red,Y,no_color_change,no_figure_change,not_first,update,correct,578,1586,3590,1175,0,0.692529850771196,2.26098224396717,1175,-0.707747015151704,225,-0.505793401272932,2.26098224396717,0,NaN
207601006,105,b_3,red,red,X,no_color_change,figure_change,not_first,update,correct,424,1431,3435,1300,0,1.13851981526999,3.17350376523341,750,-0.185956185541747,475,1.72375074106672,0.489276334892478,0,NaN
207601006,107,b_4,blue,red,Y,color_change,figure_change,not_first,no_update,correct,22,1032,3036,2475,0,0.898214431550081,2.30322139349741,900,-1.02131145735863,2175,2.25734477766316,0.770363399385023,1,125
207601006,108,b_4,red,red,Y,color_change,no_figure_change,not_first,update,correct,21,1028,3034,2600,0,0.773407361134479,2.98068093411777,2550,-0.788031092861644,1475,-0.0847381180821974,2.98068093411777,0,NaN
207601006,109,b_4,blue,red,X,color_change,figure_change,not_first,no_update,correct,21,1028,3033,3225,0,-0.321893166957472,2.09299068792686,50,-2.43157199022463,1400,2.09299068792686,-2.18830715189317,0,NaN
208827162,2,b_0,red,blue,X,color_change,figure_change,not_first,no_update,correct,22,1030,3036,2975,0,0.827913003124923,1.71517190349326,700,0,25,0,0.539761013819443,0,NaN
208827162,3,b_0,red,blue,Y,no_color_change,figure_change,not_first,no_update,correct,11,1018,3022,3000,0,-0.0903250713478425,0.765191319435518,2225,-1.44880062300146,2325,0.172521968853602,-0.622736055940384,1,225
208827162,4,b_0,red,blue,X,no_color_change,figure_change,not_first,no_update,correct,22,1029,3035,3175,0,-1.81878777184627,0.479534290339254,1325,-3.37791536443505,150,-3.37791536443505,-2.32340782254441,1,125
208827162,5,b_0,red,blue,Y,no_color_change,figure_change,not_first,no_update,correct,9,1016,3021,2875,0,-0.637690044671494,0.578452484581115,275,-2.01123663829053,2075,-0.261332391276327,-0.605896434772536,1,175
208827162,7,b_1,red,blue,X,color_change,no_figure_change,not_first,no_update,correct,14,1021,3026,2725,0,-0.49385072202043,0.71480242728078,375,-1.53248217604415,2375,-0.311601309878316,-1.25726284603708,0,NaN
208827162,8,b_1,blue,blue,X,color_change,no_figure_change,not_first,update,correct,27,1036,3043,3025,0,0.662573838632225,1.68334891862649,1550,-0.872927569804457,1275,0,0.105096832208453,0,NaN
208827162,9,b_1,blue,blue,Y,no_color_change,figure_change,not_first,update,correct,8,1016,3021,2475,0,1.16509378899963,2.54094986706721,400,-0.433074532037059,2425,0.172192041583541,0.749564764189911,0,NaN
208827162,10,b_1,red,blue,Y,color_change,no_figure_change,not_first,no_update,correct,20,1028,3033,3000,0,0.846836104973156,2.07290304440371,2375,-0.849802667512015,50,-0.849802667512015,1.89681186235582,1,125
208827162,11,b_1,red,blue,Y,no_color_change,no_figure_change,not_first,no_update,correct,10,1017,3023,2875,0,0.30458873203604,1.93868263226535,2375,-0.904390634012981,1850,0.790325778736512,-0.505838491779555,1,125
208827162,12,b_1,blue,blue,X,color_change,figure_change,not_first,update,correct,22,1029,3033,2525,0,0.785593935237224,3.65853350431584,1125,-2.0743427270367,2225,2.91760683592388,-1.47561471204095,0,NaN
208827162,13,b_1,red,blue,X,color_change,no_figure_change,not_first,no_update,correct,22,1030,3035,2250,0,-0.214928238693805,1.64372765283101,175,-2.09959715989045,300,-0.56777483838642,-0.756403256696626,1,125
208827162,14,b_1,blue,blue,X,color_change,no_figure_change,not_first,update,correct,20,1026,3031,3100,0,0.0241086826139854,2.06252533209089,2425,-1.81597968119092,2350,0.133920478256491,1.87674901233014,1,275
208827162,16,b_2,blue,blue,X,no_color_change,no_figure_change,not_first,update,correct,23,1030,3036,2350,0,0.744938364689402,2.27451859979904,2325,-0.909129589346581,300,0.0723740456960608,1.94840049003805,1,125
208827162,17,b_2,red,blue,X,color_change,no_figure_change,not_first,no_update,correct,23,1031,3036,1625,0,0.0437803489574598,1.23641744124688,750,-1.11269471497408,1525,-0.256983349989163,-0.278158682049427,0,NaN
208827162,18,b_2,red,blue,Y,no_color_change,figure_change,not_first,no_update,correct,21,1030,3035,2600,0,-0.512242234762647,0.515916270210503,1550,-1.24991446593118,2400,-0.0137669651779908,-1.20732385470515,0,NaN
208827162,19,b_2,red,blue,X,no_color_change,figure_change,not_first,no_update,correct,8,1016,3022,2475,0,0.659042982181192,1.26950014841752,1500,-0.352782231859539,125,-0.172551962241789,0.520295304885855,0,NaN
208827162,20,b_2,blue,blue,Y,color_change,figure_change,not_first,update,correct,19,1027,3031,2350,0,0.688328156947885,1.51508601089549,1275,-0.430795034534821,1700,0.352302337648542,0.125582316340409,0,NaN
208827162,21,b_2,red,blue,Y,color_change,no_figure_change,not_first,no_update,correct,6,1013,3018,2650,0,-0.0713054152880664,1.08774021600221,1575,-1.29013559949041,500,0.0819419365278236,0.472365870562479,0,NaN
208827162,22,b_2,red,blue,X,no_color_change,figure_change,not_first,no_update,correct,17,1025,3031,2550,0,-0.348103881722688,0.923676382617443,1650,-1.50710776963766,2250,-0.32464843373981,-0.758742740975239,0,NaN
208827162,23,b_2,red,blue,X,no_color_change,no_figure_change,not_first,no_update,correct,4,1010,3015,2575,0,-0.139134998858463,1.2245100661365,1800,-0.945601549382391,700,-0.344803990601706,-0.12354276594367,0,NaN
208827162,24,b_2,red,blue,X,no_color_change,no_figure_change,not_first,no_update,correct,16,1025,3031,2625,0,1.16968679068285,2.53690075966192,1600,-0.709793531453494,2425,0.989031975477665,0.811651077737713,0,NaN
208827162,25,b_2,red,blue,X,no_color_change,no_figure_change,not_first,no_update,correct,31,1040,3045,2500,0,0.0144342407626124,1.48743210698676,2450,-1.58934964004735,950,-0.0310731501620882,1.48743210698676,0,NaN
208827162,26,b_2,red,blue,X,no_color_change,no_figure_change,not_first,no_update,correct,12,1018,3024,2825,0,-0.746871831510502,0.264841617694247,100,-1.70245470690183,1650,0.264841617694247,-1.42870505291594,1,200
208827162,27,b_2,red,blue,Y,no_color_change,figure_change,not_first,no_update,correct,22,1028,3033,2150,0,0.22440076512853,1.89618200120388,2125,-1.42147664636279,1050,0.370778264771945,1.7636712121922,0,NaN
208827162,28,b_2,red,blue,Y,no_color_change,no_figure_change,not_first,no_update,correct,12,1019,3025,2675,0,-0.267727231582771,0.770350182203741,1425,-1.30753176463907,2425,-0.203565125627503,-1.02880320821408,0,NaN
208827162,30,b_3,red,blue,X,color_change,no_figure_change,not_first,no_update,correct,12,1021,3026,2800,0,-0.752361570335835,0.205574682636055,675,-1.56025605350563,2175,-0.10038787026304,-1.36313950633841,0,NaN
208827162,31,b_3,blue,blue,X,color_change,no_figure_change,not_first,update,correct,20,1027,3032,2900,0,0.413923908284533,2.78611582211056,775,-1.28695630034255,1900,0.408090039677001,0.59803816706745,0,NaN
208827162,32,b_3,blue,blue,X,no_color_change,no_figure_change,not_first,update,correct,22,1029,3034,1925,0,-0.785715873902086,1.38035571115794,1675,-3.55463640763488,1250,0.929225159432102,-2.55357708349409,0,NaN
208827162,33,b_3,blue,blue,Y,no_color_change,figure_change,not_first,update,correct,40,1049,0,1025,0,1.50779911723538,3.47890310246183,650,-1.54528935280015,1000,1.75365342053762,2.17431068986512,0,NaN
208827162,34,b_3,blue,blue,Y,no_color_change,no_figure_change,not_first,update,correct,654,1660,3666,1775,0,-0.390646313584216,1.88676407731306,1225,-2.5464386571055,675,0.154675902882133,-0.587390514260943,0,NaN
208827162,35,b_3,blue,blue,Y,no_color_change,no_figure_change,not_first,update,correct,23,1032,3039,3200,0,0.746761310024957,1.69432649870306,1575,-0.592909297687414,50,-0.592909297687414,0.518855622252862,1,150
208827162,36,b_3,red,blue,X,color_change,figure_change,not_first,no_update,correct,72,1079,3084,1650,0,1.48759025394266,4.49759853885678,1350,-1.66346330225828,1675,0.119073751103755,-1.66346330225828,0,NaN
208827162,49,b_1,red,red,X,no_color_change,no_figure_change,not_first,update,correct,25,1032,3038,2375,0,0.012518729703641,1.15915447327628,1450,-0.777338641651392,175,-0.135390154277671,-0.466127245819512,1,125
208827162,50,b_1,red,red,X,no_color_change,no_figure_change,not_first,update,correct,142,1149,3154,2775,0,0.180080302676813,0.929525093313975,100,-0.517625893337181,1450,0.248045320309334,0.0688048325017669,2,162.5
208827162,51,b_1,blue,red,X,color_change,no_figure_change,not_first,no_update,correct,22,1030,3035,2700,0,-0.782339807223991,0.356351445053835,750,-1.83604525788826,1325,-0.613184828102059,-1.09259914488856,0,NaN
208827162,52,b_1,blue,red,Y,no_color_change,figure_change,not_first,no_update,correct,13,1022,3027,2550,0,-0.484097923496543,0.728329445353272,800,-1.40612003161087,2125,-0.723440523078735,-1.11326458934964,1,350
208827162,53,b_1,red,red,X,color_change,figure_change,not_first,update,correct,24,1031,3036,2825,0,-0.116660984010707,0.607036183523652,450,-1.29523447548226,2375,-0.0700645548056371,-1.27093983105051,1,175
208827162,55,b_2,blue,red,X,color_change,figure_change,not_first,no_update,correct,24,1032,0,1375,0,0.396164057557287,0.909429523228455,500,-0.171352226714296,250,0.0719241448732507,0.89548259772134,0,NaN
208827162,56,b_2,blue,red,Y,no_color_change,figure_change,not_first,no_update,correct,1638,2645,1115,100,0,-1.0400607265804,-0.545279797245912,100,-1.29187521600528,75,-1.28302716649001,-0.545279797245912,0,NaN
208827162,57,b_2,red,red,X,color_change,figure_change,not_first,update,correct,756,1763,3768,1800,0,-0.736558464662339,-0.241326801355369,325,-1.41643775714732,1725,-0.814410469450949,-1.26833040627821,0,NaN
208827162,58,b_2,blue,red,X,color_change,no_figure_change,not_first,no_update,correct,16,1024,3029,1650,0,0.382410246045328,1.60770559361801,1600,-0.232748692333789,300,-0.0954689546003157,1.57009388483108,0,NaN
208827162,60,b_3,blue,red,Y,color_change,figure_change,not_first,no_update,correct,18,1025,3030,3025,0,0.138100690781281,1.43902277845239,1625,-1.01923531738232,2400,-0.287096711729256,-0.67686079122379,0,NaN
208827162,61,b_3,blue,red,Y,no_color_change,no_figure_change,not_first,no_update,correct,9,1016,3022,2300,0,0.113327545283336,1.11752365047225,1550,-0.964407403775856,2250,-0.188118530711021,-0.611385224810818,0,NaN
208827162,62,b_3,blue,red,Y,no_color_change,no_figure_change,not_first,no_update,correct,20,1026,3032,3000,0,1.0156840383789,1.99066117399402,825,0.283587485311337,150,0.726979742884842,0.306862354544716,1,250
208827162,63,b_3,blue,red,X,no_color_change,figure_change,not_first,no_update,correct,21,1028,3034,3300,0,0.821130843666039,2.39035306497856,1475,-0.626291938739928,1275,0.866448997955991,-0.181430005145243,1,125
208827162,64,b_3,red,red,X,color_change,no_figure_change,not_first,update,correct,17,1025,3030,2475,0,1.32772164383178,3.60844454604297,575,-0.668252688814022,1200,1.45287972379494,1.17124180871578,1,225
208827162,65,b_3,red,red,X,no_color_change,no_figure_change,not_first,update,correct,5,1012,3016,2850,0,-0.116311112683551,1.60839544154632,2325,-1.91549774319653,2125,-0.836095689110399,-0.971635810329006,0,NaN
208827162,66,b_3,blue,red,Y,color_change,figure_change,not_first,no_update,correct,17,1023,3029,2825,0,0.513218720534767,1.34373378418119,1750,-0.435593976644796,725,-0.0485592954753098,0.450590670738467,0,NaN
208827162,67,b_3,blue,red,X,no_color_change,figure_change,not_first,no_update,correct,3,1009,3015,1725,0,0.67148425585159,1.21104303484038,850,-0.0401311533946662,1525,0.361450321045681,0.263431928449442,0,NaN
208827162,68,b_3,red,red,X,color_change,no_figure_change,not_first,update,correct,50,1058,3063,2575,0,0.179968368588938,1.20222497871331,1400,-0.549178937710267,1875,0.0844613811355605,-0.0286736791071008,0,NaN
208827162,69,b_3,blue,red,Y,color_change,figure_change,not_first,no_update,correct,12,1019,3025,2925,0,-0.151326228920962,0.830216985025679,2325,-1.79081522850174,2425,-0.258123098740282,-1.01353657362673,0,NaN
208827162,70,b_3,blue,red,X,no_color_change,figure_change,not_first,no_update,correct,22,1028,3033,2800,0,0.613802784661774,2.68122894361942,2400,-1.28791608876455,2425,0.623322593309381,0.670832120198134,1,350
208827162,71,b_3,red,red,Y,color_change,figure_change,not_first,update,correct,153,1161,3166,2850,0,0.102900203036464,1.74966429990871,1275,-1.06263575008941,1150,-0.0573173648260142,-0.534752117992155,0,NaN
208827162,72,b_3,blue,red,Y,color_change,no_figure_change,not_first,no_update,correct,21,1028,3033,3225,0,0.306896058455153,2.27913758157989,500,-0.990051750676035,2225,-0.0719841316496252,0.162654144139966,1,125
208827162,73,b_3,blue,red,X,no_color_change,figure_change,not_first,no_update,correct,135,1142,3147,2150,0,-1.18610300326752,-0.409979623132804,1700,-2.39245260215167,625,-2.30502187558557,-0.493451222458182,1,125
208827162,74,b_3,red,red,X,color_change,no_figure_change,not_first,update,correct,21,1027,3032,2225,0,-0.809849789424665,0.143008474877256,1175,-2.52097427053444,1950,0.00752834043502326,-1.72509971498327,0,NaN
208827162,76,b_0,blue,red,X,color_change,no_figure_change,not_first,no_update,correct,12,1020,3025,2625,0,0.377266731346412,1.82680729432656,1475,-1.16761260874511,375,-0.654605697188781,-0.596628477822645,0,NaN
208827162,77,b_0,blue,red,X,no_color_change,no_figure_change,not_first,no_update,correct,24,1032,3036,3100,0,0.696191066095252,1.57087371292395,1650,-0.267481035854733,2125,0.377736730831409,0.261242411111765,0,NaN
208827162,78,b_0,blue,red,Y,no_color_change,figure_change,not_first,no_update,correct,13,1020,3025,2475,0,0.84407176589692,1.99659986485511,2425,-0.0496690508382416,1950,1.06140602117373,1.44385171395055,0,NaN
208827162,80,b_1,blue,red,X,color_change,no_figure_change,not_first,no_update,correct,24,1032,3038,2875,0,-0.107496303263441,0.728629379235146,425,-0.973915307831244,2425,-0.400171785195542,-0.770500149144678,1,125
208827162,81,b_1,blue,red,X,no_color_change,no_figure_change,not_first,no_update,correct,12,1018,3025,3075,0,-1.14012598754782,0.308272043789521,525,-2.35769026524254,1200,-1.31847935132745,-1.27132974509695,2,125
208827162,82,b_1,blue,red,X,no_color_change,no_figure_change,not_first,no_update,correct,22,1029,3033,2675,0,0.324463526047687,1.43992258009801,250,-0.78966592419639,2450,0.300803690130872,-0.78966592419639,0,NaN
208827162,83,b_1,blue,red,X,no_color_change,no_figure_change,not_first,no_update,correct,10,1017,3024,2725,0,-0.423073746942798,1.15582520718748,800,-2.14344749342034,250,-0.968636471510272,-0.602927089341987,1,175
208827162,85,b_2,blue,red,Y,color_change,figure_change,not_first,no_update,correct,2,1010,3016,3150,0,-0.142492712284508,0.544679929482165,1650,-0.976764679709042,2375,-0.386974694393111,-0.586400732450761,0,NaN
208827162,86,b_2,blue,red,Y,no_color_change,no_figure_change,not_first,no_update,correct,114,1120,3125,2325,0,-0.446092640555633,1.16797252940336,1875,-1.77359902368221,825,-0.229359439468619,0.388054456367856,0,NaN
208827162,87,b_2,blue,red,Y,no_color_change,no_figure_change,not_first,no_update,correct,22,1030,3036,2925,0,-0.818015299793716,0.892633225843542,175,-2.52448349695236,575,0.0410009616520991,-0.620593194984333,1,200
208827162,88,b_2,red,red,Y,color_change,no_figure_change,not_first,update,correct,12,1019,3024,2325,0,0.741489608812182,1.60197685647423,1600,-0.267391055690171,2350,0.66669303262828,-0.267391055690171,1,150
208827162,90,b_3,red,red,X,no_color_change,no_figure_change,not_first,update,correct,318,1324,3330,1100,0,-0.20919502092385,1.32753735456003,250,-1.3465531626708,1100,1.08687040774478,-0.994010877916764,0,NaN
208827162,91,b_3,red,red,Y,no_color_change,figure_change,not_first,update,correct,16,1025,3029,2600,0,0.306882205838753,1.12631171321114,1750,-0.416398208204895,2125,0.565135420225934,-0.186990779315178,1,125
208827162,92,b_3,blue,red,Y,color_change,no_figure_change,not_first,no_update,correct,206,1213,3218,2500,0,0.00162675479642909,1.55209785191867,1750,-1.18536869455202,850,-0.227709803118315,-0.615614292545234,0,NaN
208827162,93,b_3,blue,red,Y,no_color_change,no_figure_change,not_first,no_update,correct,16,1023,3029,2700,0,0.84677207242559,1.57891194095816,1450,0.0989953200971988,100,0.0989953200971988,1.19664620851046,1,150
208827162,94,b_3,red,red,X,color_change,figure_change,not_first,update,correct,21,1027,3033,2450,0,-1.03894777604553,0.599207909206757,275,-2.71224210700513,1275,0.0235748031152523,-2.35817015945354,0,NaN
208827162,95,b_3,red,red,Y,no_color_change,figure_change,not_first,update,correct,65,1072,3078,2850,0,-0.0864992308762687,1.11161495299934,300,-1.12697156775126,1050,0.0928895232162039,-0.857241027782476,0,NaN
208827162,96,b_3,blue,red,X,color_change,figure_change,not_first,no_update,correct,22,1030,3035,2475,0,-0.362811000475768,0.542160484874428,250,-1.57483284016468,2175,-0.0175761254777835,-0.537871430363638,0,NaN
208827162,97,b_3,red,red,Y,color_change,figure_change,not_first,update,correct,13,1021,3027,2825,0,-0.117600519165419,0.994010877916764,375,-1.10630612329018,525,0.179360461360317,-0.436433791514041,0,NaN
208827162,98,b_3,blue,red,Y,color_change,no_figure_change,not_first,no_update,correct,21,1029,3035,3025,0,0.261860213066387,2.81140024835249,325,-1.36271959890378,1425,0.184429343963978,2.47007549078052,0,NaN
208827162,100,b_0,blue,blue,Y,no_color_change,no_figure_change,not_first,update,correct,14,1021,3026,1775,0,1.02368701209666,1.74336568838937,725,0.176241148988833,75,0.18631892741978,0.256353488837228,0,NaN
208827162,101,b_0,blue,blue,X,no_color_change,figure_change,not_first,update,correct,10,1019,3025,3000,0,-0.392297438560708,0.848063050997149,2100,-1.37864608803126,2200,-0.0756733183966687,-0.914468412443928,1,175
208827162,102,b_0,red,blue,X,color_change,no_figure_change,not_first,no_update,correct,20,1026,3032,3000,0,0.954487013330345,3.32857624086687,425,-1.36403930798403,1975,-0.135480134442233,-0.124112640319229,1,150
208827162,103,b_0,red,blue,X,no_color_change,no_figure_change,not_first,no_update,correct,8,1015,0,1475,0,0.0368576644839036,1.49094133340468,1025,-1.34574334118975,75,-1.34574334118975,0.296964536442892,0,NaN
208827162,104,b_0,blue,blue,X,color_change,no_figure_change,not_first,update,correct,1644,2651,4656,1425,0,-0.843346196054845,1.59771779535162,325,-2.61473360200808,1450,1.09901772996066,-2.61473360200808,0,NaN
208827162,105,b_0,red,blue,X,color_change,no_figure_change,not_first,no_update,correct,6,1013,3018,2000,0,NaN,NaN,25,NaN,25,NaN,NaN,0,NaN
208827162,107,b_1,red,blue,Y,color_change,no_figure_change,not_first,no_update,correct,19,1026,3032,1625,0,-2.20938139629655,0.467237001182443,750,-3.07624186604674,1500,0.288686361303185,-2.52592317958535,0,NaN
208827162,108,b_1,blue,blue,Y,color_change,no_figure_change,not_first,update,correct,66,1073,3079,2575,0,0.0921588595431453,0.897522148118079,200,-0.380496122544645,2450,0.389764079494534,-0.380496122544645,0,NaN
208827162,109,b_1,blue,blue,Y,no_color_change,no_figure_change,not_first,update,correct,145,1152,3158,2875,0,-0.868882829857446,0.317030113140225,2350,-1.63068052896951,1000,-0.53988098737219,0.0439003225102096,1,300
