participant_id,trial_id,block,border_color,dominant,figure,is_color_change,is_figure_change,is_first,is_update,is_correct,event_fixation,event_stimulus_on,event_stimulus_off,event_Trial_Offset,event_Trial_Onset,trial_mean,trial_max,trial_max_latency,trial_min,trial_min_latency,first_bin,last_bin,valid_blinks,blinks_mean
318657061,6,b_1,red,red,X,no_color_change,figure_change,not_first,update,correct,11,1020,3026,3350,0,-0.33301446906609,0.465115985295081,1825,-1.27647471545034,2575,0,-0.450545573164048,0,NaN
318657061,7,b_1,red,red,Y,no_color_change,figure_change,not_first,update,correct,21,1029,3033,3300,0,0.200813965217892,0.825964679876858,2225,-0.65822725241714,2825,0.0313796924675702,0.353527950925694,0,NaN
318657061,8,b_1,red,red,Y,no_color_change,no_figure_change,not_first,update,correct,10,1018,3023,3150,0,-0.86389553305192,0.828310160854049,250,-2.45852605277347,2600,0.264364136201874,-1.15955604249643,0,NaN
318657061,10,b_2,red,red,Y,no_color_change,figure_change,not_first,update,correct,9,1017,3024,3325,0,-0.594929726824895,0.690815222963869,375,-1.97389993025902,700,0.287428032477585,-1.58693110661308,0,NaN
318657061,15,b_2,red,red,X,no_color_change,figure_change,not_first,update,correct,13,1020,3026,3325,0,-0.0497248537139213,1.03609845287883,2025,-1.435505433222,2550,-0.258109520262698,-0.968683643579873,0,NaN
318657061,17,b_2,blue,red,X,no_color_change,no_figure_change,not_first,no_update,correct,10,1018,3023,3475,0,0.510267413181628,0.985386311144718,2400,-0.222962843195396,150,0,0.750411762338858,2,175
318657061,21,b_2,red,red,Y,no_color_change,figure_change,not_first,update,correct,7,1015,3020,2950,0,-0.0781049984060943,1.14832616387836,1925,-1.81860065949653,2700,0.339561677834239,-0.920388058004077,0,NaN
318657061,25,b_2,blue,red,Y,no_color_change,no_figure_change,not_first,no_update,correct,16,1023,3033,3100,0,0.121960232650494,0.961256287152101,1675,-0.574713914592916,300,0.0663486815820538,-0.183445042488785,0,NaN
318657061,26,b_2,blue,red,Y,no_color_change,no_figure_change,not_first,no_update,correct,156,1163,3168,1350,0,1.38192089738907,2.32099557729272,1025,-0.296738881205222,125,-0.190410410239231,1.11666217068629,0,NaN
318657061,28,b_2,red,red,Y,no_color_change,no_figure_change,not_first,update,correct,14,1023,3027,2300,0,-0.217031542074717,1.2549033979783,2300,-1.87400376318503,1675,0.254342535662967,-1.10099009324778,0,NaN
318657061,30,b_2,blue,red,Y,no_color_change,figure_change,not_first,no_update,correct,15,1023,3030,3400,0,0.0541563016666252,0.771627703905267,875,-1.37967587844675,3000,-0.0505344537812965,-1.37967587844675,0,NaN
318657061,31,b_2,blue,red,X,no_color_change,figure_change,not_first,no_update,correct,2,1009,3015,2900,0,0.0889456874438101,1.23297670460062,450,-1.14217816071088,1000,0.0450972024250811,0.269765849967526,0,NaN
318657061,34,b_2,blue,red,X,no_color_change,no_figure_change,not_first,no_update,correct,12,1018,3023,2750,0,-1.4916991667923,0.324173901120244,150,-3.25005480739429,1450,0.0615511068559813,-3.05466913447617,0,NaN
318657061,37,b_2,blue,red,X,no_color_change,no_figure_change,not_first,no_update,correct,22,1029,3034,3250,0,0.888012417095084,2.13882988806423,2775,-0.0590634755165362,625,0.353705638878512,1.76554303678522,0,NaN
318657061,41,b_3,blue,red,Y,no_color_change,figure_change,not_first,no_update,correct,8,1014,3020,3350,0,-0.672792289114308,0.225379399353715,100,-1.59407416231634,2150,0.189202132160072,-0.535018425933487,0,NaN
318657061,44,b_3,blue,red,X,no_color_change,figure_change,not_first,no_update,correct,21,1032,3037,3500,0,-0.578412810363668,0.0320193690977132,150,-1.16915119194857,1900,-0.155334808353057,-0.523219945866405,0,NaN
318657061,50,b_0,red,blue,Y,no_color_change,figure_change,not_first,no_update,correct,59,1068,3073,3425,0,0.13346963382963,1.19267707690161,350,-1.05329864671157,950,0.111481421597698,-0.0799951163584377,0,NaN
318657061,54,b_0,blue,blue,Y,no_color_change,figure_change,not_first,update,correct,11,1018,3023,3375,0,-0.273496401071049,0.475279736196244,2200,-1.34687468235664,2850,-0.0561849306808933,-0.899278729209358,0,NaN
318657061,57,b_1,red,blue,X,no_color_change,no_figure_change,not_first,no_update,correct,6,1013,3017,3400,0,-1.09137493523624,0.0324458201844751,100,-2.18008903070845,1225,-0.051849344632146,-0.639889855686374,0,NaN
318657061,60,b_1,red,blue,X,no_color_change,no_figure_change,not_first,no_update,correct,15,1022,3027,3325,0,-0.936729675594205,0.402711976265578,2975,-1.861956519984,1300,0.0937481639065119,0.195705511233192,0,NaN
318657061,61,b_1,red,blue,X,no_color_change,no_figure_change,not_first,no_update,correct,22,1030,3035,3400,0,0.0257417582469961,1.16389162854518,1200,-0.907878826125725,3000,0.333022761170555,-0.907878826125725,0,NaN
318657061,62,b_1,red,blue,Y,no_color_change,figure_change,not_first,no_update,correct,14,1022,3026,3375,0,NaN,NaN,25,NaN,25,NaN,NaN,1,125
318657061,65,b_1,red,blue,Y,no_color_change,figure_change,not_first,no_update,correct,21,1030,3035,3425,0,-0.300123911365199,0.731150388253441,2950,-0.981299488229915,1050,0.197517928351931,0.534876275571233,0,NaN
318657061,73,b_2,red,blue,Y,no_color_change,figure_change,not_first,no_update,correct,10,1016,3021,3250,0,-0.205326044678597,1.55508942546818,600,-2.01309789265056,1450,0.502004004299996,-1.09676111997073,0,NaN
318657061,74,b_2,red,blue,Y,no_color_change,no_figure_change,not_first,no_update,correct,21,1028,3033,3375,0,-0.14073453270054,0.58054207944533,2925,-1.14981874268203,625,-0.0806347929885806,0.389349842213702,0,NaN
318657061,77,b_2,red,blue,X,no_color_change,no_figure_change,not_first,no_update,correct,6,1014,3019,3275,0,0.00559134712706218,0.920956659453093,1800,-0.927104662620578,2400,-0.00167026675648452,-0.388781240764686,0,NaN
318657061,78,b_2,red,blue,Y,no_color_change,figure_change,not_first,no_update,correct,17,1023,3029,2675,0,0.0549965802226106,1.2522736162766,2575,-1.11182905836965,1800,0.204909747189139,0.738790970224594,0,NaN
318657061,80,b_3,blue,blue,X,no_color_change,no_figure_change,not_first,update,correct,8,1015,3020,3175,0,1.16354580896642,2.37671851929629,875,0.143074339608649,75,0.187283102269643,1.24075943693403,0,NaN
318657061,83,b_3,blue,blue,X,no_color_change,no_figure_change,not_first,update,correct,19,1025,0,1000,0,0.309645405121668,0.971420038053262,800,-0.382953075912272,450,0.0585304116580839,0.344714628465946,0,NaN
318657061,85,b_3,red,blue,Y,no_color_change,figure_change,not_first,no_update,correct,8,1014,3018,3425,0,-0.484028553449591,0.651546185391202,3000,-1.75768922927069,1525,0.0988300393570924,0.651546185391202,0,NaN
318657061,86,b_3,red,blue,Y,no_color_change,no_figure_change,not_first,no_update,correct,18,1025,3031,3425,0,-0.879870127963035,0.282772608113766,850,-1.81135099102158,1725,-0.195456748099248,-0.915412795325187,0,NaN
318657061,87,b_3,red,blue,X,no_color_change,figure_change,not_first,no_update,correct,5,1013,3017,3375,0,-0.665530077960332,0.161340661158288,2425,-1.37843206277702,875,-0.371652122113079,-0.311167142974003,0,NaN
318657061,90,b_3,red,blue,X,no_color_change,no_figure_change,not_first,no_update,correct,14,1021,3027,3350,0,-0.0930733976386278,0.485407949506841,2850,-0.646713073074566,1775,0.355873431902885,0.123493127208161,0,NaN
318657061,92,b_3,blue,blue,X,no_color_change,no_figure_change,not_first,update,correct,13,1021,3025,3325,0,0.463127373399601,1.19100681014513,900,-0.310740691887241,200,0.178363167038205,0.500298199952948,1,125
318657061,94,b_3,red,blue,Y,no_color_change,no_figure_change,not_first,no_update,correct,28,1036,3042,3275,0,0.535912838401871,1.47324635440044,350,-0.469984635202283,2725,-0.0157076150290668,0.04346247325916,0,NaN
318657061,96,b_3,blue,blue,Y,no_color_change,no_figure_change,not_first,update,correct,9,1015,3021,3250,0,0.99049461581181,1.77986468578232,1225,0.0303846399317922,125,0.233019981324867,1.09093295511831,3,133.333333333333
318657061,97,b_3,blue,blue,Y,no_color_change,no_figure_change,not_first,update,correct,20,1027,3032,3250,0,-0.0329631559216139,0.566113817676549,2750,-0.873478438460257,2125,-0.0358218912880076,-0.271661188130912,0,NaN
318657061,99,b_0,red,red,X,no_color_change,no_figure_change,not_first,update,correct,103,1111,3114,3375,0,0.365325075745678,1.14672697230301,325,-0.306938169696946,2125,-0.00948853668045441,0.514619848950038,0,NaN
318657061,100,b_0,red,red,Y,no_color_change,figure_change,not_first,update,correct,2,1011,3017,3250,0,-0.089915180924306,1.13954837900918,2125,-1.54098100201447,2975,-0.282275081845878,-1.24999921048054,0,NaN
318657061,102,b_0,blue,red,X,no_color_change,figure_change,not_first,no_update,correct,26,1032,3039,3225,0,0.280219575662276,1.90836861325993,2000,-1.12487135410645,2725,-0.477056615724419,-1.11907872684461,0,NaN
318657061,104,b_0,red,red,X,no_color_change,figure_change,not_first,update,correct,39,1046,3052,3125,0,0.116173279457725,1.41439610442729,300,-0.713488205743382,2925,0.317563909275433,-0.552183082175657,0,NaN
318657061,105,b_0,red,red,X,no_color_change,no_figure_change,not_first,update,correct,10,1016,3021,3300,0,0.94515984907334,1.60025770307439,2700,0.0455591911024065,100,0.117842650308565,1.38959086621396,0,NaN
318657061,106,b_0,red,red,X,no_color_change,no_figure_change,not_first,update,correct,22,1029,3035,3350,0,-0.0531576655082694,0.804286749633124,2875,-0.802438794923822,3000,-0.0754463047663097,-0.802438794923822,0,NaN
318657061,108,b_0,blue,red,Y,no_color_change,figure_change,not_first,no_update,correct,20,1029,3033,3300,0,0.0581302404702259,1.06093922868272,1925,-0.714625408641414,550,-0.0603783663673859,0.442265314562753,0,NaN
318657061,109,b_0,blue,red,Y,no_color_change,no_figure_change,not_first,no_update,correct,7,1014,3020,3450,0,-0.574229826909694,0.257896294719317,2775,-1.42612350931324,1075,0.0212870167475363,0.095880419340322,0,NaN
318657061,110,b_0,blue,red,X,no_color_change,figure_change,not_first,no_update,correct,15,1021,3026,3275,0,-0.89807791701057,-0.0217845430154253,75,-1.79564337599251,1575,-0.267988970439351,-1.22174682598255,0,NaN
318657061,111,b_0,blue,red,Y,no_color_change,figure_change,not_first,no_update,correct,5,1012,3017,3025,0,0.805707357350019,1.7898152111401,1825,-0.0162051412969557,75,0.0575708967128694,1.35462187709948,0,NaN
318657061,112,b_0,blue,red,Y,no_color_change,no_figure_change,not_first,no_update,correct,16,1022,3027,3350,0,-0.47195562762009,0.377018298288168,1825,-1.22245757779382,2550,-0.400330957697823,0.279005623514036,0,NaN
318657061,113,b_0,blue,red,Y,no_color_change,no_figure_change,not_first,no_update,correct,4,1011,3015,2725,0,-0.630499128888205,1.17700499946311,2700,-2.2842141710595,575,0.140195794773006,0.94601066080036,0,NaN
318657061,114,b_0,blue,red,Y,no_color_change,no_figure_change,not_first,no_update,correct,15,1021,3027,3425,0,-1.44109618307864,0.201320450542225,150,-2.82406570930962,2850,0.170260596389727,-2.74666483706232,1,125
318657061,115,b_0,blue,red,Y,no_color_change,no_figure_change,not_first,no_update,correct,21,1029,3035,2800,0,0.867743559783072,1.59769899655382,1975,-0.0260490538830453,1125,0.712635303569858,0.943665179823169,0,NaN
318657061,118,b_1,blue,red,Y,no_color_change,no_figure_change,not_first,no_update,correct,14,1021,3027,3475,0,0.276466626917642,1.110905081015,950,-0.683281253764407,3000,0.088488600503114,-0.683281253764407,0,NaN
318657061,119,b_1,blue,red,X,no_color_change,figure_change,not_first,no_update,correct,4,1011,3017,3275,0,0.2987092763526,1.27619041472584,1350,-0.899563029933866,2875,0.0183018591402023,-0.421191523358597,0,NaN
318657061,120,b_1,blue,red,X,no_color_change,no_figure_change,not_first,no_update,correct,15,1021,3026,3350,0,0.0582266996446126,1.61390413785077,2850,-1.27739869280499,2400,-0.377906738052255,0.938227928466954,0,NaN
318657061,124,b_2,red,red,Y,no_color_change,figure_change,not_first,update,correct,19,1027,3032,2975,0,-0.420513920056172,1.04242414399913,550,-2.10588654161186,3000,-1.39246941104961,-2.10588654161186,0,NaN
318657061,125,b_2,red,red,Y,no_color_change,no_figure_change,not_first,update,correct,8,1016,3020,3350,0,0.25336150254365,1.05841605975271,1850,-0.412271588127159,475,-0.174489569666783,0.712884066703802,2,237.5
318657061,126,b_2,red,red,Y,no_color_change,no_figure_change,not_first,update,correct,19,1027,0,450,0,0.0723576700570408,0.247945769361537,75,-0.138738753559903,50,-0.138738753559903,0.203594856338289,1,200
318657061,127,b_2,red,red,Y,no_color_change,no_figure_change,not_first,update,correct,2331,3340,5345,1900,0,-0.422581753901442,0.519666186810055,1025,-1.22888988168582,1550,-0.215499949177062,-0.459643196348304,0,NaN
318657061,131,b_3,blue,red,X,no_color_change,figure_change,not_first,no_update,correct,21,1027,3033,3300,0,0.0362796990723256,0.802154494199314,2925,-0.867188284930518,825,0.212585866750855,0.666471973427872,0,NaN
318657061,132,b_3,blue,red,X,no_color_change,no_figure_change,not_first,no_update,correct,9,1016,3020,3100,0,-0.623079679444195,0.522686882007952,2425,-1.97987024547369,1725,0.0807058681697077,0.0685164746064273,0,NaN
318657061,133,b_3,blue,red,Y,no_color_change,figure_change,not_first,no_update,correct,16,1023,3028,3325,0,-0.301643068702985,0.833925100163082,2800,-1.72314669124297,2025,-0.279680837734742,0.559041837154413,0,NaN
318657061,135,b_3,red,red,Y,no_color_change,no_figure_change,not_first,update,correct,15,1024,3028,3375,0,-0.0069892585676315,0.714198957554652,1075,-1.06506158918808,1950,0.00252316893000847,-0.499800673685059,0,NaN
318657061,137,b_3,blue,red,Y,no_color_change,figure_change,not_first,no_update,correct,20,1029,3039,3325,0,-0.679303134067799,0.0116563297048279,2425,-1.13865993924509,2975,-0.258216133034388,-0.953793393133767,1,150
318657061,138,b_3,blue,red,Y,no_color_change,no_figure_change,not_first,no_update,correct,18,1025,3030,3150,0,-0.667723254977965,0.856313782218087,1625,-2.44306720087835,2400,0.0858232812108515,-1.06246734507695,0,NaN
318657061,141,b_3,blue,red,X,no_color_change,figure_change,not_first,no_update,correct,5,1012,3017,3225,0,1.17766684911984,2.16448802845107,1750,-0.0767967332077227,150,-0.0574998215317424,1.3038741977748,0,NaN
318657061,142,b_3,blue,red,Y,no_color_change,figure_change,not_first,no_update,correct,16,1022,3028,3450,0,-1.00867358656111,0.285970991264481,3000,-2.54275014240896,1150,-0.0852546797618356,0.285970991264481,0,NaN
318657061,144,b_3,red,red,X,no_color_change,figure_change,not_first,update,correct,14,1021,3026,3425,0,-1.3745681027183,0.0996829415306165,100,-2.46630878510687,2950,-0.0369235565954761,-2.35951832546356,0,NaN
318657061,145,b_3,red,red,Y,no_color_change,figure_change,not_first,update,correct,22,1030,3035,3250,0,0.618091276815852,1.6068676949192,1225,-0.644296516916248,2675,-0.0803504922640725,1.21417731919253,0,NaN
318657061,146,b_3,red,red,Y,no_color_change,no_figure_change,not_first,update,correct,12,1019,3025,3500,0,0.828461568907963,1.69386371661865,950,-0.162939852733646,75,0.134438705101719,0.735876887798387,0,NaN
318657061,149,b_3,red,red,Y,no_color_change,no_figure_change,not_first,update,correct,26,1036,3041,3425,0,0.080999426585875,1.18510757011159,2600,-1.11609356923727,75,0.87980412958056,0.909620168063336,0,NaN
318657061,150,b_3,red,red,X,no_color_change,figure_change,not_first,update,correct,7,1015,3021,3300,0,-0.285570521441409,1.3790362018166,2825,-1.85811846020314,1325,-0.0569312200827264,1.23137751302526,0,NaN
318657061,151,b_3,red,red,Y,no_color_change,figure_change,not_first,update,correct,20,1026,3032,3350,0,-1.44779934911047,-0.0869604841088836,150,-2.73184566179734,2125,-0.152136425202342,-0.811323192564696,0,NaN
318657061,155,b_3,blue,red,Y,no_color_change,no_figure_change,not_first,no_update,correct,92,1099,3104,3450,0,0.127704182372328,1.564222586243,2675,-1.17643639801409,650,-0.267598056943152,0.746005101108984,0,NaN
318657061,156,b_3,blue,red,Y,no_color_change,no_figure_change,not_first,no_update,correct,3,1011,3016,3275,0,-0.744082786231192,0.17029613398029,1050,-2.08996570103941,2175,0.154090992683334,-0.751868803551962,0,NaN
318657061,157,b_3,blue,red,Y,no_color_change,no_figure_change,not_first,no_update,correct,15,1023,3028,3350,0,-0.526617817340619,0.457191102599423,600,-2.08872188536969,2975,-0.0830868867374621,-1.78668790317051,0,NaN
318657061,158,b_3,blue,red,X,no_color_change,figure_change,not_first,no_update,correct,22,1030,3034,3150,0,0.727292021277976,1.52900483399457,2650,-0.255266513017618,250,0.174027580989458,1.30462048717663,0,NaN
318657061,159,b_3,blue,red,Y,no_color_change,figure_change,not_first,no_update,correct,184,1191,3197,3475,0,-0.257475816336851,0.749096871488009,2725,-1.53653880319404,900,-0.139236279827792,0.19943695824236,0,NaN
318657061,160,b_3,blue,red,X,no_color_change,figure_change,not_first,no_update,correct,22,1029,3034,3250,0,-0.513797108933211,0.780369951183888,2975,-1.4007496696509,2700,-0.1275444125324,0.76729211785652,0,NaN
318657061,164,b_0,red,blue,X,no_color_change,no_figure_change,not_first,no_update,correct,14,1021,3026,3175,0,-1.02015013786662,0.180317734519197,275,-2.67853927595209,2475,-0.325595404742784,-2.07841598410628,0,NaN
318657061,165,b_0,red,blue,X,no_color_change,no_figure_change,not_first,no_update,correct,22,1028,3033,3300,0,-0.484250738049417,0.709827833915341,600,-2.05336198275901,2400,0.0101992884917244,-1.08620645557337,0,NaN
318657061,166,b_0,red,blue,Y,no_color_change,figure_change,not_first,no_update,correct,14,1021,3026,3275,0,-0.226679358443823,0.533454771948693,2950,-0.957453764961807,1925,0.127117961445638,0.196274112682208,0,NaN
318657061,169,b_0,red,blue,Y,no_color_change,figure_change,not_first,no_update,correct,22,1028,3034,2775,0,-0.592378035517006,0.921240960177601,825,-2.00385811910405,2575,0.159243943315042,-1.37597996902814,0,NaN
318657061,172,b_0,red,blue,X,no_color_change,no_figure_change,not_first,no_update,correct,7,1014,0,1175,0,0.613839256690696,1.59023610253548,1175,-0.15750260137743,650,0.281422179672354,1.59023610253548,0,NaN
318657061,174,b_0,blue,blue,X,no_color_change,no_figure_change,not_first,update,correct,696,1703,3709,525,0,-0.476801083525609,-0.224775260314139,400,-0.869675916269967,550,-0.272928695527681,-0.869675916269967,1,125
318657061,177,b_0,blue,blue,X,no_color_change,figure_change,not_first,update,correct,16,1022,3028,3100,0,0.565871773834938,1.11627125719009,1200,-0.0707908804024913,2900,0.0625816969823229,0.316462243967964,0,NaN
318657061,179,b_0,red,blue,X,no_color_change,no_figure_change,not_first,no_update,correct,18,1027,3033,2725,0,0.178436216529919,1.37697502156392,825,-1.08769903437703,925,-0.0639676630142993,0.877600798965623,0,NaN
318657061,180,b_0,red,blue,Y,no_color_change,figure_change,not_first,no_update,correct,17,1024,3029,2575,0,-0.469507982956035,1.46276276518421,150,-1.50913932086958,825,-0.0103769764445419,1.28951701118715,0,NaN
318657061,181,b_0,red,blue,X,no_color_change,figure_change,not_first,no_update,correct,13,1020,3025,3075,0,-1.50802368351795,0.18298305381146,100,-2.5019174508515,1925,0.18298305381146,-2.00872676901125,0,NaN
318657061,184,b_0,red,blue,X,no_color_change,no_figure_change,not_first,no_update,correct,22,1030,3034,2200,0,-0.242481149975807,0.768642546297933,1675,-0.953047103731933,1325,0.326554919687998,-0.309354725855264,0,NaN
318657061,185,b_0,red,blue,X,no_color_change,no_figure_change,not_first,no_update,correct,200,1207,3213,2250,0,1.42583361840595,3.73720409883875,2250,-0.217880967744816,50,-0.217880967744816,3.73720409883875,0,NaN
318657061,187,b_0,blue,blue,Y,no_color_change,figure_change,not_first,update,correct,10,1019,3024,3275,0,2.16221690764237,3.52603973571043,2350,0.0183018591402022,100,0.300292640261572,2.56339748252636,0,NaN
318657061,188,b_0,blue,blue,X,no_color_change,figure_change,not_first,update,correct,17,1024,3029,2575,0,-0.743410684485273,0.769673136424275,1875,-1.76504551051734,900,-0.0160985285252653,-1.2650316112889,1,125
318657061,189,b_0,blue,blue,Y,no_color_change,figure_change,not_first,update,correct,6,1013,3019,2150,0,-0.340719955349931,0.910259844693479,2050,-1.30842300936693,800,0.150714921579802,0.770988027275124,0,NaN
318657061,190,b_0,blue,blue,X,no_color_change,figure_change,not_first,update,correct,16,1023,3028,3000,0,-0.837441231182365,0.320833367607275,575,-1.64734501057103,2600,-0.30636956824793,-1.15465185499867,0,NaN
318657061,191,b_0,blue,blue,Y,no_color_change,figure_change,not_first,update,correct,3,1011,3016,2350,0,0.0941841681090169,0.828310160854049,1025,-1.02380244654386,2300,0.149506643500643,-0.593868675906642,0,NaN
318657061,193,b_0,red,blue,X,no_color_change,figure_change,not_first,no_update,correct,23,1030,0,1500,0,-0.775197123594747,0.553071521939745,875,-1.72300454088072,400,-0.49006337387066,-0.478158281031887,0,NaN
318657061,196,b_0,red,blue,X,no_color_change,figure_change,not_first,no_update,correct,18,1025,3032,3375,0,0.0836599677147004,0.663415740639411,1525,-0.742344729280944,450,0.049361713292701,-0.374104215861961,0,NaN
318657061,197,b_0,red,blue,X,no_color_change,no_figure_change,not_first,no_update,correct,5,1012,3016,3475,0,0.00436992909845114,0.935313846040747,2825,-1.05489783828692,500,-0.521514141519357,0.249438348165204,0,NaN
318657061,200,b_1,red,blue,Y,no_color_change,no_figure_change,not_first,no_update,correct,7,0,0,500,0,-0.46640160989488,-0.0602006784145683,500,-0.664446330765752,300,-0.248194532495481,-0.0602006784145683,0,NaN
318657061,201,b_1,red,blue,Y,no_color_change,no_figure_change,not_first,no_update,correct,3024,4032,6038,2425,0,-0.581976539481096,0.260739301964397,1425,-1.14402611542018,125,-0.821273717922476,-1.04025635097476,0,NaN
318657061,208,b_1,red,blue,X,no_color_change,no_figure_change,not_first,no_update,correct,21,1028,3033,2850,0,0.2869978074874,1.67808502640845,350,-1.31005773853285,2675,0.628197988390983,-1.30039151389958,1,150
318657061,211,b_1,red,blue,X,no_color_change,no_figure_change,not_first,no_update,correct,17,1023,3028,3275,0,-0.544343011881005,0.865198179858962,2625,-1.4781505418982,1575,-0.337713723124937,-0.105724331926411,1,175
318657061,213,b_2,blue,blue,Y,no_color_change,no_figure_change,not_first,update,correct,13,1021,3026,2775,0,-0.164177207023266,0.766545828454687,1925,-1.74748994077897,2450,0.271222891180629,-1.16908011676745,0,NaN
318657061,214,b_2,blue,blue,X,no_color_change,figure_change,not_first,update,correct,26,1034,3039,3500,0,0.914824782587208,1.9289448781962,850,-0.0967688591044094,2300,0.0642875013293709,0.716899814437478,0,NaN
318657061,215,b_2,blue,blue,Y,no_color_change,figure_change,not_first,update,correct,13,1020,3026,3400,0,0.610006624280264,1.62637783213856,2575,-0.644296516916248,1600,0.167488664325774,-0.0620130955333068,0,NaN
318657061,218,b_2,blue,blue,Y,no_color_change,figure_change,not_first,update,correct,21,1028,3033,3350,0,-0.773871947544635,0.157218300652922,150,-1.9783065914889,1950,0.036568180689841,-0.631964972990714,0,NaN
318657061,221,b_2,blue,blue,X,no_color_change,figure_change,not_first,update,correct,7,1014,3021,3025,0,1.00600534165607,1.99149103758796,2200,-0.501613090803797,100,-0.182769828268079,0.62258304908195,0,NaN
318657061,222,b_2,blue,blue,X,no_color_change,no_figure_change,not_first,update,correct,293,1300,3306,2550,0,-0.174750178664249,0.762068092043686,1275,-1.6326679856683,2400,0.0175911073289323,-1.10927035184908,0,NaN
318657061,230,b_2,red,blue,X,no_color_change,figure_change,not_first,no_update,correct,137,1144,3149,3300,0,0.809545417130877,2.09995176398776,2025,-0.59912823931004,850,-0.0854679053052165,1.08343452350941,0,NaN
318657061,232,b_3,blue,blue,X,no_color_change,figure_change,not_first,update,correct,16,1023,3029,3250,0,0.926543527051933,1.91135377086726,1675,-0.0280391589546012,2875,0.470979687738061,0.152171962792905,0,NaN
318657061,234,b_3,red,blue,X,no_color_change,no_figure_change,not_first,no_update,correct,11,1020,3024,3475,0,1.14260610497371,1.91281081208037,2125,-0.172783765319735,50,-0.172783765319735,0.924190580194371,0,NaN
318657061,235,b_3,red,blue,X,no_color_change,no_figure_change,not_first,no_update,correct,21,1029,3034,3425,0,-0.0970809329038957,1.02579255161542,2725,-0.925718696588602,1575,-0.291941306479149,0.498343632471955,0,NaN
318657061,239,b_0,red,red,Y,no_color_change,figure_change,not_first,update,correct,58,1064,3069,3300,0,-0.311783735357284,0.695506184918251,2900,-1.39431736575891,1100,-0.353812251650202,0.336256681911833,0,NaN
318657061,240,b_0,red,red,Y,no_color_change,no_figure_change,not_first,update,correct,24,1030,3036,3500,0,-0.363681846864766,0.599092701719477,2925,-1.15063610726499,1850,-0.208392431064362,0.397878863948942,0,NaN
318657061,241,b_0,red,red,X,no_color_change,figure_change,not_first,update,correct,18,1025,3030,3175,0,-0.726911261379081,0.347202259805389,1175,-2.08275157015502,1825,-0.00472649954494544,-0.904147379116557,0,NaN
318657061,244,b_0,red,red,Y,no_color_change,figure_change,not_first,update,correct,3,1010,3014,3175,0,0.800912171705665,1.9415962604368,1275,-0.479686397426118,225,-0.355127142501052,0.50427841009606,0,NaN
318657061,248,b_0,blue,red,Y,no_color_change,no_figure_change,not_first,no_update,correct,22,1030,3034,3250,0,-0.0858038699218884,0.896613409917095,1700,-0.932577451567357,2850,-0.0661709936292364,-0.66249176328476,0,NaN
318657061,255,b_0,blue,red,X,no_color_change,figure_change,not_first,no_update,correct,6,1013,3018,3400,0,-0.0212807454080251,1.47356619271551,700,-1.96192376223912,2675,-0.0499658523322805,-1.09185693247296,0,NaN
318657061,259,b_1,red,red,Y,no_color_change,figure_change,not_first,update,correct,13,1022,3028,3425,0,0.063961690310003,0.899101041256541,2250,-0.702507090259261,2600,0.281777555577989,0.267242681037517,0,NaN
318657061,263,b_2,red,red,X,no_color_change,figure_change,not_first,update,correct,24,1031,3036,3325,0,-0.496680682278234,0.408433528346301,575,-1.70477375692164,1675,-0.108318576037547,-0.192293902539096,0,NaN
318657061,264,b_2,red,red,X,no_color_change,no_figure_change,not_first,update,correct,3,1011,3016,2850,0,-0.177875604580754,0.515259525580181,325,-1.10859513762837,2700,-0.0688718505120623,-0.45868368140309,1,200
318657061,266,b_2,blue,red,Y,no_color_change,figure_change,not_first,no_update,correct,11,1019,3024,3050,0,0.445764124739576,1.64315157488453,1050,-0.945939585619233,1025,0.281066803766719,0.351075857176813,0,NaN
318657061,267,b_2,blue,red,X,no_color_change,figure_change,not_first,no_update,correct,22,1028,3033,3200,0,0.313579219604098,1.90701818481852,2950,-1.28813104515517,1000,0.768287170392298,1.73682866360992,0,NaN
318657061,269,b_2,red,red,X,no_color_change,figure_change,not_first,update,correct,21,1027,3033,3100,0,-0.82573114713887,0.329575614885896,400,-2.25674361355392,2425,0.20654447635506,-1.03908361048617,0,NaN
318657061,270,b_2,red,red,X,no_color_change,no_figure_change,not_first,update,correct,7,1013,3019,3175,0,0.20111498951443,1.5088194825545,675,-1.84727949508127,3000,0.320762292426148,-1.84727949508127,0,NaN
318657061,272,b_3,red,red,X,no_color_change,figure_change,not_first,update,correct,10,1018,3023,3400,0,1.16847358864615,1.98608932382231,1400,-0.0963779456082089,125,0.00984391258609152,0.572332896025164,0,NaN
318657061,274,b_3,blue,red,X,no_color_change,figure_change,not_first,no_update,correct,9,1017,3023,3275,0,-0.988395956839667,-0.190979011688247,50,-2.20013223178626,2525,-0.190979011688247,-1.46059497215983,0,NaN
318657061,275,b_3,blue,red,Y,no_color_change,figure_change,not_first,no_update,correct,19,1027,3032,3350,0,0.541336352538207,1.52171962792906,1125,-0.985492923916406,2775,-0.0700445910006557,-0.569951877457405,0,NaN
318657061,276,b_3,blue,red,Y,no_color_change,no_figure_change,not_first,no_update,correct,6,1013,3018,3275,0,-0.233407311198488,0.6119217719129,1375,-0.969678696115651,2975,-0.589995078535221,-0.931404711078762,1,125
318657061,277,b_3,blue,red,Y,no_color_change,no_figure_change,not_first,no_update,correct,18,1025,3030,3000,0,0.484081411882614,1.26481838574552,2075,-0.669812506940841,2475,-0.0800661915395646,-0.130671720501988,0,NaN
318657061,279,b_3,red,red,X,no_color_change,no_figure_change,not_first,update,correct,15,1022,3027,3225,0,-0.597147391930144,0.545359864787465,150,-1.85001588955466,2600,0.0309532413808082,-1.64492845441271,0,NaN
318657061,282,b_3,red,red,X,no_color_change,no_figure_change,not_first,update,correct,22,1029,3035,3400,0,0.174537351301154,1.30643290429537,1450,-0.987376416216274,2625,0.119797217789557,-0.0833001122808432,0,NaN
318657061,283,b_3,red,red,Y,no_color_change,figure_change,not_first,update,correct,11,1018,3024,3325,0,0.243609287407145,1.31169246769877,2075,-0.947147863698392,600,-0.0793909773188581,0.406478960865309,1,125
318657061,288,b_3,red,red,Y,no_color_change,no_figure_change,not_first,update,correct,20,1026,3033,3225,0,-1.03002271943333,0.148049602287539,375,-3.05861380702872,2375,0.0722123840250312,-2.24007648357964,1,125
318657061,289,b_3,red,red,X,no_color_change,figure_change,not_first,update,correct,7,1014,3019,3050,0,1.73682567725777,3.51125609803602,1850,0.105262343249086,150,0.981406101001606,1.77854979493147,0,NaN
318657061,290,b_3,red,red,Y,no_color_change,figure_change,not_first,update,correct,14,1022,3028,3300,0,-0.675899588524503,0.594117439040587,450,-1.84329928493816,2950,-0.267988970439351,-1.43216489970904,0,NaN
318657061,291,b_3,red,red,X,no_color_change,figure_change,not_first,update,correct,4,1013,3018,3475,0,0.432209818926964,1.79162762825883,775,-0.620699556782085,2900,0.865518018174033,-0.148014064696976,0,NaN
318657061,293,b_3,blue,red,Y,no_color_change,figure_change,not_first,no_update,correct,22,1030,3034,2825,0,0.828715226488083,2.00840693069618,2700,-0.610215967565852,575,0.26290709498877,1.75932395843661,0,NaN
318657061,295,b_0,blue,blue,Y,no_color_change,no_figure_change,not_first,update,correct,47,1054,3059,3250,0,NaN,NaN,25,NaN,25,NaN,NaN,0,NaN
318657061,297,b_0,red,blue,Y,no_color_change,no_figure_change,not_first,no_update,correct,22,1029,3035,2750,0,0.673069042512478,2.17905844058211,675,-0.253702859032824,50,-0.253702859032824,0.263226933303842,0,NaN
318657061,298,b_0,red,blue,X,no_color_change,figure_change,not_first,no_update,correct,12,1021,3026,3400,0,0.219179433658851,0.96093644883703,2725,-0.636478246992279,1925,-0.126549359996622,0.382064636148185,1,125
318657061,299,b_0,red,blue,X,no_color_change,no_figure_change,not_first,no_update,correct,21,1027,3032,3425,0,0.239637737685263,0.988478081523742,2600,-0.496069226675891,2000,-0.055758479594131,0.518280220778079,0,NaN
318657061,301,b_0,blue,blue,X,no_color_change,figure_change,not_first,update,correct,160,1168,0,2650,0,0.75921662346752,2.20158927299937,1550,-0.353705638878512,750,0.486580689995437,-0.0615866444465449,0,NaN
318657061,302,b_0,blue,blue,Y,no_color_change,figure_change,not_first,update,correct,783,1790,3796,3000,0,-0.0747952799980036,0.473964845345394,775,-0.801585892750298,2200,0.191547613137263,-0.193324492665438,0,NaN
318657061,303,b_0,blue,blue,X,no_color_change,figure_change,not_first,update,correct,7,1014,3019,3325,0,-0.233946945031666,0.725108997857646,1625,-1.13599461995283,1275,-0.0134332092330027,0.235436537483185,0,NaN
318657061,305,b_0,red,blue,X,no_color_change,no_figure_change,not_first,no_update,correct,6,1013,3018,3275,0,-0.16909024498285,0.576490794121091,1000,-1.05418708647565,1875,-0.0498237019700265,-0.00465542436381838,0,NaN
318657061,309,b_1,blue,blue,Y,no_color_change,figure_change,not_first,update,correct,41,1049,3054,3375,0,0.531347004602498,1.24640991383362,375,-0.225095098629207,850,-0.171930863146211,0.265252575965959,0,NaN
318657061,310,b_1,blue,blue,Y,no_color_change,no_figure_change,not_first,update,correct,59,1066,3072,3475,0,0.663115313613303,1.39659177155497,525,-0.246844104054068,325,0.244569698258004,0.560356728005262,0,NaN
318657061,312,b_1,red,blue,X,no_color_change,no_figure_change,not_first,no_update,correct,15,1022,3027,3200,0,0.192768284577837,1.60484205225708,1325,-0.802936321191711,2225,-0.0258002907491007,0.586512394659998,0,NaN
318657061,317,b_2,blue,blue,X,no_color_change,figure_change,not_first,update,correct,13,1021,3028,3425,0,0.169509230189241,0.819105924898103,1200,-0.676884487462977,2625,0.0451327400156445,0.289453675139705,0,NaN
318657061,320,b_2,blue,blue,X,no_color_change,figure_change,not_first,update,correct,21,1028,3033,3025,0,0.366347464792243,1.18038107056664,850,-0.386293609425241,1800,-0.24787469418041,0.577770147381377,1,150
318657061,323,b_2,blue,blue,Y,no_color_change,no_figure_change,not_first,update,correct,63,1070,3075,2400,0,0.663015475145696,2.37209863252304,1400,-0.557264957626238,1900,0.454596858488287,0.510355338082418,1,150
318657061,328,b_3,blue,blue,Y,no_color_change,figure_change,not_first,update,correct,64,1072,3077,2350,0,-0.408597841937079,0.625710357051538,2000,-1.959898119577,1525,-0.00476203713550893,0.244676311029695,0,NaN
318657061,334,b_3,red,blue,Y,no_color_change,figure_change,not_first,no_update,correct,80,1087,3093,1375,0,0.373416168622439,1.16339410227729,800,-0.730084260536536,250,-0.360635469038394,0.192755891216422,0,NaN
318657061,335,b_3,red,blue,X,no_color_change,figure_change,not_first,no_update,correct,20,1026,3032,625,0,-0.211113188997904,0.522757957189079,525,-1.03090996465656,75,-0.358396600832894,-0.576206493396583,0,NaN
318657061,336,b_3,red,blue,X,no_color_change,no_figure_change,not_first,no_update,correct,6,1013,3018,1125,0,-0.570630322368165,0.261876504862429,200,-1.5361834272884,700,-0.19801545461982,-0.440026446357252,0,NaN
318657061,337,b_3,red,blue,Y,no_color_change,figure_change,not_first,no_update,correct,22,1030,3035,1725,0,-0.859220654118672,0.10977561725065,625,-1.45384282995277,350,-0.12399065347605,-0.649520542729083,0,NaN
318657061,338,b_3,red,blue,X,no_color_change,figure_change,not_first,no_update,correct,5,1012,3016,1050,0,-0.706103321070187,0.144247080097245,100,-1.61074129229062,850,0.0625461593917593,-0.273141921071058,0,NaN
318657061,339,b_3,red,blue,Y,no_color_change,figure_change,not_first,no_update,correct,163,1171,3175,2700,0,-0.0495824116939108,0.779730274553745,350,-0.890394331568483,1375,0.339703828196493,0.522367043692881,1,150
