participant_id,trial_id,block,border_color,figure,is_color_change,is_figure_change,is_update,is_correct,event_fixation,event_stimulus_on,event_stimulus_off,event_Trial_Offset,event_Trial_Onset,trial_mean,trial_max,trial_max_latency,trial_min,trial_min_latency,first_bin,last_bin,valid_blinks,blinks_mean
209154863,1,b_0,blue,X,no_color_change,no_figure_change,update,correct,29,1041,3046,3175,0,3.68631672295998,3.83357238769531,225,3.53255462646484,2100,3.7197265625,3.72481536865234,1,125
209154863,2,b_0,blue,Y,no_color_change,figure_change,update,correct,22,1031,3037,3325,0,3.7540783737645,3.98668670654297,1100,3.38294219970703,2725,3.73453521728516,3.63224792480469,0,NaN
209154863,3,b_0,blue,Y,no_color_change,no_figure_change,update,correct,11,1018,3023,3525,0,3.91308882742217,4.16804504394531,2325,3.62906646728516,300,3.63754272460938,3.961669921875,2,162.5
209154863,4,b_0,blue,Y,no_color_change,no_figure_change,update,correct,21,1028,3033,3300,0,3.62990570068359,4.00593566894531,75,3.13317108154297,2350,3.96537017822266,3.74845886230469,0,NaN
209154863,5,b_0,blue,X,no_color_change,figure_change,update,correct,8,1015,3020,3525,0,4.21696902766372,4.5318603515625,3175,3.77400207519531,50,3.77513885498047,4.44519805908203,0,NaN
209154863,6,b_0,blue,X,no_color_change,no_figure_change,update,correct,19,1026,3031,3525,0,4.26032736807158,4.47707366943359,2925,4.01579284667969,1625,4.33345031738281,4.27419281005859,0,NaN
209154863,7,b_0,red,Y,color_change,figure_change,no_update,correct,5,1011,3017,3200,0,3.86749793947205,4.21718597412109,1975,3.4739990234375,2650,4.19707489013672,3.74658203125,0,NaN
209154863,8,b_0,red,Y,no_color_change,no_figure_change,no_update,correct,16,1022,3028,3525,0,3.80294788244999,3.92999267578125,1300,3.682373046875,1825,3.73973083496094,3.76799774169922,1,150
209154863,9,b_1,blue,X,no_color_change,no_figure_change,update,correct,11,1020,3026,3300,0,3.81687014030688,4.22229766845703,3250,3.46952819824219,225,3.63816070556641,4.18312072753906,0,NaN
209154863,10,b_1,blue,Y,no_color_change,figure_change,update,correct,23,1031,3036,3225,0,4.12264498197115,4.31037139892578,675,3.78744506835938,2125,4.16858673095703,3.83841705322266,0,NaN
209154863,11,b_1,blue,Y,no_color_change,no_figure_change,update,correct,13,1020,3026,3525,0,3.85902896071925,3.93099212646484,1300,3.77715301513672,2825,3.81572723388672,3.86913299560547,0,NaN
209154863,12,b_1,red,Y,color_change,no_figure_change,no_update,correct,22,1029,3033,3525,0,3.73243378147934,3.88237762451172,3075,3.60488128662109,825,3.83644104003906,3.74261474609375,0,NaN
209154863,13,b_1,blue,X,color_change,figure_change,update,correct,11,1017,3022,3300,0,3.55795629096754,3.94924163818359,3300,3.18157196044922,1175,3.71513366699219,3.94924163818359,0,NaN
209154863,14,b_1,blue,Y,no_color_change,figure_change,update,correct,21,1030,3034,3525,0,3.77216529846191,3.93509674072266,75,3.63055419921875,3225,3.88287353515625,3.73209381103516,0,NaN
209154863,15,b_1,blue,X,no_color_change,figure_change,update,correct,9,1016,3021,3525,0,3.83048566182454,4.0181884765625,2850,3.58207702636719,100,3.60967254638672,3.87932586669922,0,NaN
209154863,16,b_1,blue,X,no_color_change,no_figure_change,update,correct,21,1028,3034,3525,0,3.8112441554214,3.95439910888672,1025,3.67190551757812,2075,3.85500335693359,3.88055419921875,0,NaN
209154863,17,b_1,red,X,color_change,no_figure_change,no_update,correct,7,1014,3020,3500,0,3.6619162126021,3.84473419189453,25,3.53074645996094,1775,3.84473419189453,3.61593627929688,1,200
209154863,18,b_1,blue,Y,color_change,figure_change,update,correct,15,1022,3027,3525,0,3.62161532315341,3.85169982910156,3300,3.35004425048828,200,3.50939178466797,3.85169982910156,0,NaN
209154863,19,b_1,red,Y,color_change,no_figure_change,no_update,correct,5,1012,3018,3150,0,3.52925007737528,3.83162689208984,25,3.17789459228516,2350,3.83162689208984,3.69480133056641,1,125
209154863,20,b_1,red,X,no_color_change,figure_change,no_update,correct,15,1022,3028,3350,0,3.77255064068419,3.97852325439453,1525,3.30719757080078,3100,3.64426422119141,3.35790252685547,1,200
209154863,21,b_1,blue,X,color_change,no_figure_change,update,correct,202,1210,3215,3475,0,3.48957518375281,3.92116546630859,2850,2.95162200927734,800,3.23766326904297,3.76253509521484,0,NaN
209154863,22,b_1,blue,X,no_color_change,no_figure_change,update,correct,14,1022,3028,3525,0,3.61997072624438,3.74051666259766,825,3.50291442871094,2000,3.73374176025391,3.69366455078125,0,NaN
209154863,23,b_2,blue,Y,no_color_change,no_figure_change,update,correct,9,1019,3023,3275,0,3.91331388750149,4.33511352539062,3075,3.60271453857422,100,3.67830657958984,3.87649536132812,0,NaN
209154863,24,b_2,red,Y,color_change,no_figure_change,no_update,correct,14,1020,3026,2175,0,3.87674748212442,4.07533264160156,725,3.56895446777344,1950,3.84181976318359,3.60321807861328,0,NaN
209154863,25,b_2,blue,X,color_change,figure_change,update,correct,22,1030,3037,3350,0,3.68503830649636,3.9527587890625,3125,3.43534851074219,1100,3.60906219482422,3.90351867675781,0,NaN
209154863,26,b_2,blue,X,no_color_change,no_figure_change,update,correct,12,1020,3024,3525,0,3.71857724045262,3.97642517089844,50,3.34111785888672,3300,3.94082641601562,3.34111785888672,0,NaN
209154863,27,b_2,blue,Y,no_color_change,figure_change,update,correct,23,1031,3036,3525,0,3.52220460140344,3.93007659912109,3250,3.05904388427734,725,3.31063842773438,3.9013671875,0,NaN
209154863,28,b_2,red,X,color_change,figure_change,no_update,correct,11,1018,3023,3525,0,3.47877248128255,3.84262084960938,50,3.15787506103516,2375,3.83443450927734,3.49558258056641,0,NaN
209154863,29,b_2,red,Y,no_color_change,figure_change,no_update,correct,21,1029,3034,3425,0,3.65663933031487,4.01693725585938,1400,3.19345092773438,3000,3.49176788330078,3.28536224365234,0,NaN
209154863,30,b_2,blue,Y,color_change,no_figure_change,update,correct,104,1112,3118,1800,0,3.4831434276006,4.05532836914063,825,3.01815032958984,225,3.27129364013672,3.59538269042969,0,NaN
209154863,31,b_3,blue,Y,no_color_change,no_figure_change,update,correct,52,1061,3067,3275,0,3.88126731641365,4.19028472900391,3250,3.58519744873047,2150,3.87042999267578,4.036865234375,0,NaN
209154863,32,b_3,blue,Y,no_color_change,no_figure_change,update,correct,15,1023,3028,3525,0,4.07106893712824,4.34173583984375,600,3.84851837158203,825,4.03910064697266,4.22303009033203,0,NaN
209154863,33,b_3,blue,Y,no_color_change,no_figure_change,update,correct,4,1011,3016,3175,0,4.27097272872925,4.59101104736328,2400,3.98567962646484,750,4.25091552734375,4.24394989013672,0,NaN
209154863,34,b_3,red,Y,color_change,no_figure_change,no_update,correct,15,1023,3029,3525,0,4.17435750094327,4.40911865234375,1600,4.00836944580078,425,4.15566253662109,4.24587249755859,0,NaN
209154863,35,b_3,blue,X,color_change,figure_change,update,correct,3,1010,3017,3500,0,4.51496910326409,4.69528961181641,1900,4.28201293945312,150,4.39375305175781,4.62332153320312,1,150
209154863,36,b_3,blue,X,no_color_change,no_figure_change,update,correct,13,1021,3026,3475,0,4.41776200496789,4.88967895507813,150,3.89773559570312,3250,4.54733276367188,3.93006134033203,2,162.5
209154863,37,b_3,red,Y,color_change,figure_change,no_update,correct,22,1029,3034,2750,0,3.20514335288658,3.59787750244141,100,2.85824584960938,2575,3.57579803466797,3.12788391113281,0,NaN
209154863,38,b_3,blue,X,color_change,figure_change,update,correct,12,1018,3024,3250,0,3.46711314274715,3.75177764892578,1475,3.14226531982422,300,3.14386749267578,3.58142852783203,0,NaN
209154863,39,b_3,red,X,color_change,no_figure_change,no_update,correct,23,1030,3035,3525,0,3.86031405131022,4.06420135498047,2275,3.55725860595703,25,3.55725860595703,3.73804473876953,0,NaN
209154863,40,b_3,red,X,no_color_change,no_figure_change,no_update,correct,11,1018,3022,3525,0,3.24319232593883,3.56017303466797,50,2.9366455078125,2025,3.54676818847656,3.38951873779297,0,NaN
209154863,41,b_0,blue,X,no_color_change,no_figure_change,update,correct,6,1016,3020,3525,0,3.78658138621937,3.90196990966797,2450,3.65260314941406,975,3.72242736816406,3.747802734375,1,125
209154863,42,b_0,blue,X,no_color_change,no_figure_change,update,correct,13,1019,3024,3350,0,3.69647216796875,3.87041473388672,2850,3.56204223632812,950,3.79448699951172,3.73604583740234,0,NaN
209154863,43,b_0,blue,X,no_color_change,no_figure_change,update,correct,21,1028,3034,3525,0,3.65280816049287,3.83682250976562,1600,3.38667297363281,450,3.79463195800781,3.65212249755859,0,NaN
209154863,44,b_0,red,X,color_change,no_figure_change,no_update,correct,19,1026,3032,3525,0,3.72481473286947,3.95098876953125,1425,3.55117034912109,2175,3.67802429199219,3.85132598876953,0,NaN
209154863,45,b_0,blue,X,color_change,no_figure_change,update,correct,4,1011,3016,3500,0,3.95936867685029,4.149658203125,1375,3.75677490234375,2000,3.98091125488281,3.86505889892578,0,NaN
209154863,46,b_0,red,X,color_change,no_figure_change,no_update,correct,16,1023,3028,3525,0,4.02299511071407,4.24355316162109,1100,3.85258483886719,2075,3.96167755126953,4.07234191894531,1,200
209154863,47,b_0,red,Y,no_color_change,figure_change,no_update,correct,4,1012,3018,3225,0,3.80394674447867,4.29717254638672,1375,3.16517639160156,2550,3.99214935302734,3.35468292236328,0,NaN
209154863,48,b_1,blue,X,no_color_change,no_figure_change,update,correct,15,1026,0,2150,0,3.67543730624886,3.84176635742188,1775,3.49469757080078,100,3.53466033935547,3.61225891113281,1,150
209154863,49,b_1,red,X,color_change,no_figure_change,no_update,correct,1253,2259,4265,1025,0,3.22659701392764,3.61289978027344,550,2.86896514892578,750,3.61238861083984,2.98276519775391,0,NaN
209154863,50,b_1,blue,X,color_change,no_figure_change,update,correct,15,1021,3027,3400,0,3.36021851048325,3.57944488525391,2425,2.89933013916016,425,2.90340423583984,3.5206298828125,0,NaN
209154863,51,b_1,red,Y,color_change,figure_change,no_update,correct,22,1029,3034,2800,0,3.3113414122995,3.63784027099609,2650,3.05776977539062,1900,3.43366241455078,3.63784027099609,1,175
209154863,52,b_2,blue,Y,no_color_change,no_figure_change,update,correct,21,1031,3036,3275,0,3.72416198614872,3.90032958984375,1650,3.52872467041016,2125,3.75673675537109,3.73043060302734,0,NaN
209154863,53,b_2,red,X,color_change,figure_change,no_update,correct,3,1012,0,2500,0,3.40246398925781,3.83609008789062,450,2.67311859130859,2275,3.74868011474609,3.05103302001953,0,NaN
209154863,54,b_2,red,X,no_color_change,no_figure_change,no_update,correct,633,1639,3644,2400,0,3.51969655354818,3.75602722167969,425,3.02557373046875,25,3.02557373046875,3.38118743896484,0,NaN
209154863,55,b_2,red,X,no_color_change,no_figure_change,no_update,correct,23,1030,3035,3250,0,3.60926119971821,3.93952178955078,1475,3.17445373535156,50,3.27554321289062,3.56800079345703,0,NaN
209154863,56,b_2,red,X,no_color_change,no_figure_change,no_update,correct,13,1020,3024,3525,0,3.59723091125488,3.81327056884766,725,3.28621673583984,3150,3.52825927734375,3.31334686279297,0,NaN
209154863,57,b_2,blue,X,color_change,no_figure_change,update,correct,22,1029,3034,3525,0,3.51617125308875,3.7691650390625,1525,3.09481811523438,425,3.16854095458984,3.5908203125,1,125
209154863,58,b_3,blue,Y,no_color_change,no_figure_change,update,correct,19,1028,3033,3025,0,3.67569044769787,3.98406982421875,2000,3.36881256103516,100,3.39173889160156,3.86514282226562,0,NaN
209154863,59,b_3,blue,Y,no_color_change,no_figure_change,update,correct,13,1019,3026,3525,0,3.74853966452859,3.94620513916016,325,3.53178405761719,2575,3.82905578613281,3.58714294433594,0,NaN
209154863,60,b_3,blue,X,no_color_change,figure_change,update,correct,24,1032,3037,3525,0,3.68103379914255,3.90462493896484,2550,3.46710968017578,550,3.56482696533203,3.72191619873047,0,NaN
209154863,61,b_3,red,X,color_change,no_figure_change,no_update,correct,13,1020,3025,3150,0,3.42344992501395,3.83190155029297,25,2.97637939453125,3050,3.83190155029297,3.26324462890625,0,NaN
209154863,62,b_3,blue,X,color_change,no_figure_change,update,correct,25,1032,3036,3450,0,3.69386600174067,4.01728820800781,1350,3.29866790771484,25,3.29866790771484,3.63656616210938,1,125
209154863,63,b_3,blue,Y,no_color_change,figure_change,update,correct,11,1018,3023,3525,0,3.61710218949751,3.80978393554688,3300,3.34613037109375,550,3.58895874023438,3.80978393554688,0,NaN
209154863,64,b_3,red,Y,color_change,no_figure_change,no_update,correct,22,1030,3034,3450,0,3.49460913918235,3.81114959716797,25,3.16472625732422,3125,3.81114959716797,3.47362518310547,0,NaN
209154863,65,b_3,blue,X,color_change,figure_change,update,correct,10,1018,3023,3525,0,3.6144914338083,3.77173614501953,2000,3.36724853515625,275,3.5205078125,3.5208740234375,0,NaN
209154863,66,b_3,blue,X,no_color_change,no_figure_change,update,correct,21,1028,3032,3525,0,3.66671310771595,4.0277099609375,3250,3.3328857421875,450,3.41545104980469,3.92298126220703,0,NaN
209154863,67,b_0,blue,Y,no_color_change,no_figure_change,update,correct,3,1012,3016,3500,0,3.94780372850823,4.23429870605469,3075,3.59599304199219,1025,4.05545806884766,4.11390686035156,0,NaN
209154863,68,b_0,red,Y,color_change,no_figure_change,no_update,correct,19,1026,3030,3525,0,3.85149013634884,4.04196929931641,3300,3.67138671875,1650,3.98190307617188,4.04196929931641,0,NaN
209154863,69,b_0,red,X,no_color_change,figure_change,no_update,correct,5,1013,3019,3500,0,4.02792930603027,4.15912628173828,1500,3.90248870849609,400,4.11296844482422,4.02865600585938,1,125
209154863,70,b_0,red,X,no_color_change,no_figure_change,no_update,correct,17,1024,3030,3525,0,3.70666029959014,4.03712463378906,750,3.28434753417969,2300,3.9852294921875,3.59549713134766,0,NaN
209154863,71,b_0,red,X,no_color_change,no_figure_change,no_update,correct,6,1013,3019,3500,0,3.59333526726925,3.82157135009766,1450,3.38649749755859,2675,3.51609802246094,3.58660125732422,1,150
209154863,72,b_1,blue,Y,no_color_change,no_figure_change,update,correct,25,1035,3041,3350,0,3.68945954062722,3.85625457763672,1800,3.50244903564453,2625,3.67512512207031,3.67018127441406,1,150
209154863,73,b_1,blue,Y,no_color_change,no_figure_change,update,correct,7,1014,3018,3500,0,3.66407145875873,3.78143310546875,1375,3.5504150390625,2100,3.68852996826172,3.73892974853516,0,NaN
209154863,74,b_1,blue,X,no_color_change,figure_change,update,correct,15,1024,3029,3525,0,3.77805628921046,3.99605560302734,2575,3.64222717285156,700,3.69304656982422,3.89476776123047,0,NaN
209154863,75,b_1,red,X,color_change,no_figure_change,no_update,correct,5,1013,3018,3350,0,3.57048219622988,3.76724243164062,25,3.44587707519531,1375,3.76724243164062,3.46940612792969,1,225
209154863,76,b_1,red,X,no_color_change,no_figure_change,no_update,correct,14,1021,3027,3425,0,3.54658612337979,3.81765747070312,3150,3.24917602539062,625,3.60951995849609,3.75090789794922,0,NaN
209154863,77,b_1,red,Y,no_color_change,figure_change,no_update,correct,3,1010,3014,3500,0,3.71749635176225,3.9080810546875,2825,3.52371215820312,350,3.71199798583984,3.84758758544922,0,NaN
209154863,78,b_2,blue,Y,no_color_change,no_figure_change,update,correct,3,1014,3019,3350,0,3.7698798902107,3.94585418701172,1900,3.58299255371094,3250,3.70735931396484,3.61409759521484,0,NaN
209154863,79,b_2,blue,Y,no_color_change,no_figure_change,update,correct,180,1189,3195,3450,0,3.48016184026545,3.64562225341797,2550,3.22318267822266,1075,3.59504699707031,3.55075836181641,1,150
209154863,80,b_2,red,Y,color_change,no_figure_change,no_update,correct,15,1023,3027,3525,0,3.49491807186242,3.67882537841797,3200,3.26602935791016,1750,3.61016082763672,3.65611267089844,0,NaN
209154863,81,b_2,red,X,no_color_change,figure_change,no_update,correct,10,1019,3023,3525,0,3.73052926497026,3.85752868652344,525,3.59729766845703,3125,3.72141265869141,3.66050720214844,0,NaN
209154863,82,b_2,blue,X,color_change,no_figure_change,update,correct,21,1028,3033,3475,0,3.59077043244333,3.80275726318359,1425,3.41178131103516,575,3.66223907470703,3.48751831054688,0,NaN
209154863,83,b_2,blue,Y,no_color_change,figure_change,update,correct,9,1017,3022,3075,0,3.24441826052782,3.47502136230469,125,2.98764801025391,2000,3.358154296875,3.33106231689453,0,NaN
209154863,84,b_2,blue,Y,no_color_change,no_figure_change,update,correct,19,1025,3031,3375,0,3.42185078245221,3.58605194091797,2450,3.22453308105469,2050,3.32613372802734,3.39530944824219,1,175
209154863,85,b_2,blue,Y,no_color_change,no_figure_change,update,correct,6,1014,3019,3500,0,3.73929140549297,3.92433166503906,2425,3.46407318115234,300,3.50614929199219,3.76826477050781,0,NaN
209154863,86,b_2,blue,Y,no_color_change,no_figure_change,update,correct,15,1021,3027,3450,0,3.43922759547378,3.63600921630859,1775,3.25843048095703,600,3.60354614257812,3.57379913330078,0,NaN
209154863,87,b_3,blue,X,no_color_change,no_figure_change,update,correct,16,1026,3032,2975,0,3.68592395782471,3.90813446044922,650,3.39875793457031,625,3.89894104003906,3.74697875976562,0,NaN
209154863,88,b_3,red,X,color_change,no_figure_change,no_update,correct,4,1011,3016,3350,0,3.74513429583925,3.83663940429688,1425,3.64167785644531,400,3.76127624511719,3.64858245849609,1,125
209154863,89,b_3,blue,X,color_change,no_figure_change,update,correct,15,1021,3027,3375,0,3.69343850106904,3.99467468261719,3100,3.25681304931641,750,3.63726043701172,3.95974731445312,0,NaN
209154863,90,b_3,red,Y,color_change,figure_change,no_update,correct,22,1030,3036,3375,0,3.67219886484072,3.84642791748047,175,3.51312255859375,2750,3.83586883544922,3.52548980712891,0,NaN
209154863,91,b_3,red,Y,no_color_change,no_figure_change,no_update,correct,13,1020,3025,3525,0,3.527731924346,3.68811798095703,2825,3.28550720214844,700,3.55046081542969,3.50510406494141,0,NaN
209154863,92,b_3,blue,X,color_change,figure_change,update,correct,24,1032,3038,3350,0,3.47032610575358,3.64840698242188,3275,3.28288269042969,2425,3.53632354736328,3.62085723876953,2,200
209154863,93,b_3,red,Y,color_change,figure_change,no_update,correct,11,1017,3023,3525,0,3.5809708219586,3.70638275146484,2950,3.43032073974609,1750,3.63565826416016,3.56990814208984,0,NaN
209154863,94,b_3,red,X,no_color_change,figure_change,no_update,correct,22,1029,3037,3425,0,3.50358269431374,3.75190734863281,1400,3.22170257568359,2375,3.61981964111328,3.47124481201172,0,NaN
209154863,95,b_3,red,Y,no_color_change,figure_change,no_update,correct,10,1016,3021,3450,0,3.47550975915157,3.81990051269531,2000,3.04364013671875,3100,3.45311737060547,3.17778778076172,0,NaN
209154863,96,b_0,red,X,no_color_change,no_figure_change,update,correct,13,1022,3027,3275,0,3.51266432900465,3.6685791015625,1375,3.34446716308594,2350,3.47306060791016,3.623779296875,0,NaN
209154863,97,b_0,blue,Y,color_change,figure_change,no_update,correct,24,1031,3038,2925,0,3.77229761673232,4.05108642578125,1725,3.52040100097656,2525,3.60536193847656,3.66075134277344,0,NaN
209154863,98,b_0,blue,Y,no_color_change,no_figure_change,no_update,correct,14,1021,0,1975,0,3.96160627920416,4.19191741943359,1825,3.60772705078125,25,3.60772705078125,4.14556121826172,0,NaN
209154863,99,b_0,blue,Y,no_color_change,no_figure_change,no_update,correct,1576,2583,4588,675,0,3.71551949637277,3.82770538330078,125,3.6165771484375,675,3.77770233154297,3.68917846679688,0,NaN
209154863,100,b_1,red,X,no_color_change,no_figure_change,update,correct,14,1022,3026,3375,0,3.96360206604004,4.21040344238281,2900,3.62425994873047,325,3.78622436523438,3.94746398925781,0,NaN
209154863,101,b_1,red,Y,no_color_change,figure_change,update,correct,25,1033,3038,3475,0,3.66665730331883,3.89531707763672,1275,3.37063598632812,2600,3.84033203125,3.55138397216797,0,NaN
209154863,102,b_1,red,Y,no_color_change,no_figure_change,update,correct,13,1020,3026,3525,0,3.76103141091087,3.88273620605469,2900,3.62345123291016,25,3.62345123291016,3.76872253417969,0,NaN
209154863,103,b_1,red,X,no_color_change,figure_change,update,correct,21,1028,3033,3525,0,3.91258788831306,4.15476989746094,2400,3.65225982666016,100,3.72119140625,3.76922607421875,0,NaN
209154863,104,b_1,blue,Y,color_change,figure_change,no_update,correct,11,1019,3025,3525,0,4.20185909849225,4.62578582763672,3125,3.81145477294922,50,3.818603515625,4.50422668457031,0,NaN
209154863,105,b_1,blue,X,no_color_change,figure_change,no_update,correct,20,1027,3031,3525,0,4.52037632104122,4.80614471435547,2175,4.25379180908203,525,4.52657318115234,4.63463592529297,0,NaN
209154863,106,b_1,red,X,color_change,no_figure_change,update,correct,9,1015,3021,3300,0,3.62843958536784,4.24226379394531,25,3.30901336669922,2425,4.24226379394531,3.56322479248047,1,200
209154863,107,b_1,red,Y,no_color_change,figure_change,update,correct,21,1027,3032,3525,0,3.6555118560791,3.87868499755859,1475,3.47920227050781,2725,3.63773345947266,3.52818298339844,0,NaN
209154863,108,b_1,blue,X,color_change,figure_change,no_update,correct,8,1015,3021,3525,0,3.67666406342477,3.96830749511719,2150,3.40280914306641,700,3.58381652832031,3.70499420166016,0,NaN
209154863,109,b_1,red,X,color_change,no_figure_change,update,correct,17,1024,3029,3525,0,3.54369403376724,3.70938873291016,1500,3.42825317382812,1800,3.6241455078125,3.56559753417969,1,200
209154863,110,b_2,red,X,no_color_change,no_figure_change,update,correct,11,1021,3027,3425,0,3.66361727859035,3.85849761962891,2625,3.39679718017578,200,3.44599914550781,3.84426116943359,0,NaN
209154863,111,b_2,blue,X,color_change,no_figure_change,no_update,correct,125,1132,3137,3450,0,3.70562021660082,4.06438446044922,3075,3.31192016601562,1025,3.83512115478516,4.05374908447266,0,NaN
209154863,112,b_2,blue,X,no_color_change,no_figure_change,no_update,correct,13,1020,3026,3525,0,3.82877003062855,3.97197723388672,625,3.67695617675781,1650,3.92946624755859,3.81534576416016,0,NaN
209154863,113,b_2,blue,X,no_color_change,no_figure_change,no_update,correct,21,1029,3035,3525,0,3.7470246517297,3.92475891113281,2200,3.56666564941406,700,3.80237579345703,3.82021331787109,0,NaN
209154863,114,b_3,red,Y,no_color_change,no_figure_change,update,correct,26,1035,3041,3350,0,3.63355070171934,3.83091735839844,3200,3.33621978759766,125,3.39310455322266,3.70797729492188,0,NaN
209154863,115,b_3,red,X,no_color_change,figure_change,update,correct,9,1017,3022,3525,0,3.87514556537975,4.06254577636719,2500,3.65876007080078,300,3.73609924316406,3.93979644775391,1,150
209154863,116,b_3,red,X,no_color_change,no_figure_change,update,correct,24,1034,3039,3175,0,3.62500548362732,3.97078704833984,875,3.06227874755859,2900,3.83100891113281,3.20070648193359,0,NaN
209154863,117,b_3,red,Y,no_color_change,figure_change,update,correct,6,1015,3019,3500,0,3.54268218531753,3.80877685546875,1350,3.21488952636719,150,3.23912048339844,3.40563201904297,0,NaN
209154863,118,b_3,blue,Y,color_change,no_figure_change,no_update,correct,16,1023,3027,3525,0,3.65938990043871,4.02234649658203,2875,3.35866546630859,700,3.42294311523438,3.93436431884766,0,NaN
209154863,119,b_3,red,Y,color_change,no_figure_change,update,correct,9,1018,3023,3525,0,3.54765117529667,3.88965606689453,50,3.28547668457031,2450,3.86151885986328,3.37300872802734,0,NaN
209154863,120,b_3,red,X,no_color_change,figure_change,update,correct,15,1022,3027,3525,0,3.54794681433475,3.68463897705078,1400,3.37692260742188,350,3.49462127685547,3.58109283447266,0,NaN
209154863,121,b_3,red,Y,no_color_change,figure_change,update,correct,3,1010,3015,3350,0,3.58474523370916,3.86795043945312,2750,3.35252380371094,900,3.53311920166016,3.74128723144531,0,NaN
209154863,122,b_0,red,X,no_color_change,no_figure_change,update,correct,19,1027,3033,3025,0,3.59172896088147,3.76630401611328,3025,3.32970428466797,2050,3.71076965332031,3.75257873535156,0,NaN
209154863,123,b_0,red,Y,no_color_change,figure_change,update,correct,12,1019,3025,3175,0,3.7636186494602,3.95845794677734,1975,3.59146118164062,2700,3.75445556640625,3.75424957275391,0,NaN
209154863,124,b_0,red,X,no_color_change,figure_change,update,correct,22,1028,3034,2600,0,3.92981509254092,4.084228515625,1350,3.75611877441406,25,3.75611877441406,3.81697845458984,0,NaN
209154863,125,b_0,blue,X,color_change,no_figure_change,no_update,correct,10,1017,3022,3375,0,3.96239321159594,4.34182739257812,2900,3.72017669677734,1050,3.81674194335938,4.20118713378906,0,NaN
209154863,126,b_0,red,Y,color_change,figure_change,update,correct,170,1179,3184,3200,0,3.78035916137695,4.21340179443359,350,3.53137969970703,825,4.20596313476563,3.6878662109375,1,250
209154863,127,b_0,red,Y,no_color_change,no_figure_change,update,correct,187,1196,3201,3375,0,3.60367202758789,3.7528076171875,2600,3.34791564941406,875,3.64131927490234,3.72011566162109,1,125
209154863,128,b_0,blue,X,color_change,figure_change,no_update,correct,17,1023,3028,3525,0,3.51419611494671,3.65177154541016,100,3.40318298339844,450,3.65177154541016,3.49400329589844,0,NaN
209154863,129,b_0,blue,X,no_color_change,no_figure_change,no_update,correct,6,1013,3018,3500,0,3.8076821529504,4.11215972900391,2200,3.47340393066406,25,3.47340393066406,3.76446533203125,0,NaN
209154863,130,b_0,blue,X,no_color_change,no_figure_change,no_update,correct,16,1024,3029,3525,0,3.40146181564922,3.55835723876953,100,3.23234558105469,1000,3.55835723876953,3.27622985839844,0,NaN
209154863,131,b_0,blue,X,no_color_change,no_figure_change,no_update,correct,4,1011,3016,3275,0,3.3986140164462,3.58013153076172,1275,3.18595886230469,3250,3.42497253417969,3.23582458496094,1,275
209154863,132,b_1,red,X,no_color_change,no_figure_change,update,correct,19,1029,3034,3375,0,3.67951699459192,3.93135070800781,625,3.32197570800781,2475,3.69094848632812,3.79954528808594,1,125
209154863,133,b_1,blue,X,color_change,no_figure_change,no_update,correct,5,1012,3017,3225,0,3.80130321796124,4.21482086181641,2250,3.41305541992188,3025,3.82058715820312,3.44814300537109,0,NaN
209154863,134,b_1,red,Y,color_change,figure_change,update,correct,15,1024,3029,3525,0,3.65010903627818,3.81934356689453,2325,3.41518402099609,50,3.46653747558594,3.65788269042969,0,NaN
209154863,135,b_1,blue,X,color_change,figure_change,no_update,correct,3,1010,3015,3500,0,3.45249944744688,3.69268035888672,800,3.14722442626953,1325,3.55600738525391,3.62640380859375,0,NaN
209154863,136,b_1,red,X,color_change,no_figure_change,update,correct,14,1021,3026,3275,0,3.48164379323712,3.69063568115234,25,3.17633056640625,2725,3.69063568115234,3.46282196044922,1,125
209154863,137,b_1,red,Y,no_color_change,figure_change,update,correct,21,1028,3033,3525,0,3.65088780721029,3.80806732177734,1500,3.48578643798828,325,3.50804901123047,3.67253112792969,1,150
209154863,138,b_1,red,Y,no_color_change,no_figure_change,update,correct,12,1019,3024,3400,0,3.5409929969094,3.63687133789062,2750,3.42732238769531,3275,3.46675872802734,3.54084777832031,0,NaN
209154863,139,b_1,red,Y,no_color_change,no_figure_change,update,correct,21,1029,3033,3250,0,3.50793020233853,3.67685699462891,2100,3.31043243408203,150,3.40615081787109,3.64994812011719,0,NaN
209154863,140,b_2,red,Y,no_color_change,no_figure_change,update,correct,8,1019,3024,3325,0,3.75089830340761,3.94924926757812,900,3.48003387451172,1925,3.76039886474609,3.78014373779297,0,NaN
209154863,141,b_2,blue,X,color_change,figure_change,no_update,correct,14,1022,3027,3325,0,3.76800698945017,4.01630401611328,2450,3.57161712646484,2950,3.73045349121094,3.74303436279297,0,NaN
209154863,142,b_2,blue,Y,no_color_change,figure_change,no_update,correct,6,1016,3021,3325,0,3.89109160683372,4.05875396728516,625,3.65141296386719,2675,3.72966003417969,3.88435363769531,0,NaN
209154863,143,b_2,red,X,color_change,figure_change,update,correct,14,1021,3025,3525,0,3.81357476205537,4.09099578857422,1225,3.54608154296875,2450,3.95307922363281,3.70668029785156,1,150
209154863,144,b_2,blue,X,color_change,no_figure_change,no_update,correct,22,1029,3035,3150,0,3.75263172059547,4.01947021484375,1225,3.41124725341797,2350,3.83447265625,3.78061676025391,0,NaN
209154863,145,b_2,red,Y,color_change,figure_change,update,correct,12,1019,3024,3525,0,3.7655911879106,3.92246246337891,3125,3.62685394287109,325,3.77118682861328,3.88800048828125,0,NaN
209154863,146,b_3,red,X,no_color_change,no_figure_change,update,correct,3,1011,3016,3500,0,3.69206440087521,3.91670227050781,1425,3.46794891357422,3300,3.76963043212891,3.46794891357422,0,NaN
209154863,147,b_3,blue,Y,color_change,figure_change,no_update,correct,18,1027,3032,3350,0,3.46026209628943,3.68049621582031,3175,3.27287292480469,650,3.46790313720703,3.64789581298828,0,NaN
209154863,148,b_3,blue,Y,no_color_change,no_figure_change,no_update,correct,7,1015,3021,3525,0,3.64546804717093,3.75172424316406,1300,3.54944610595703,1950,3.64949798583984,3.60743713378906,1,300
209154863,149,b_3,blue,X,no_color_change,figure_change,no_update,correct,19,1025,3030,3525,0,3.6727246949167,3.83372497558594,1500,3.41436004638672,775,3.63231658935547,3.63072204589844,0,NaN
209154863,150,b_3,blue,Y,no_color_change,figure_change,no_update,correct,5,1011,3017,3325,0,3.53201843030525,3.6888427734375,50,3.28471374511719,2375,3.67636108398438,3.5906982421875,0,NaN
209154863,151,b_3,red,X,color_change,figure_change,update,correct,16,1023,3028,3525,0,3.3535226764101,3.57925415039062,50,3.11150360107422,2425,3.573486328125,3.36708068847656,0,NaN
209154863,174,b_1,red,X,no_color_change,no_figure_change,update,correct,24,1033,3038,3050,0,3.61728730748911,3.8076171875,1300,3.31317901611328,2525,3.67008972167969,3.62049102783203,1,125
209154863,175,b_1,blue,X,color_change,no_figure_change,no_update,correct,339,1345,3351,3450,0,3.86086972554525,4.01359558105469,3300,3.73226928710938,25,3.73226928710938,4.01359558105469,1,175
209154863,176,b_1,red,Y,color_change,figure_change,update,correct,2,1012,3016,3500,0,3.79391514171254,4.01068115234375,100,3.62415313720703,2700,3.94157409667969,3.67709350585938,0,NaN
209154863,177,b_1,blue,Y,color_change,no_figure_change,no_update,correct,13,1021,3027,3525,0,3.57494897553415,3.77329254150391,850,3.38944244384766,2550,3.55117797851562,3.56527709960938,0,NaN
209154863,178,b_1,red,Y,color_change,no_figure_change,update,correct,22,1030,3034,3525,0,3.59199766679244,3.82453918457031,3300,3.28427124023438,425,3.45668029785156,3.82453918457031,0,NaN
209154863,179,b_1,blue,Y,color_change,no_figure_change,no_update,correct,13,1020,3025,3525,0,4.01016515674013,4.42440795898438,3300,3.78601837158203,50,3.82321929931641,4.42440795898438,0,NaN
209154863,180,b_1,red,X,color_change,figure_change,update,correct,22,1030,3035,3525,0,4.0929936206702,4.40183258056641,1125,3.79341125488281,3225,4.38925170898438,3.88915252685547,0,NaN
209154863,181,b_2,red,Y,no_color_change,no_figure_change,update,correct,6,1016,3021,3525,0,3.75115018902403,4.01378631591797,425,3.46192932128906,3275,3.82975769042969,3.55149078369141,0,NaN
209154863,182,b_2,blue,Y,color_change,no_figure_change,no_update,correct,18,1026,3031,3525,0,3.59282695885861,3.71702575683594,3250,3.47695922851562,100,3.54673767089844,3.66719818115234,0,NaN
209154863,183,b_2,red,X,color_change,figure_change,update,correct,5,1015,3019,3500,0,3.59378155795011,3.74167633056641,1350,3.46410369873047,425,3.67034912109375,3.62246704101562,0,NaN
209154863,184,b_2,blue,Y,color_change,figure_change,no_update,correct,15,1022,3028,3525,0,3.66614792563698,3.91231536865234,3300,3.54927062988281,450,3.64305877685547,3.91231536865234,1,200
209154863,185,b_2,blue,X,no_color_change,figure_change,no_update,correct,2,1011,3015,3500,0,3.89166144168738,4.02377319335938,3275,3.74873352050781,400,3.91135406494141,3.98927307128906,0,NaN
209154863,186,b_2,blue,Y,no_color_change,figure_change,no_update,correct,14,1021,3026,3525,0,3.96314655650746,4.22001647949219,2675,3.63829040527344,600,3.86896514892578,4.06527709960938,0,NaN
209154863,187,b_2,blue,X,no_color_change,figure_change,no_update,correct,21,1029,3036,3525,0,3.72699812686805,4.13421630859375,100,3.47847747802734,1775,4.12471008300781,3.76326751708984,0,NaN
209154863,188,b_2,blue,X,no_color_change,no_figure_change,no_update,correct,12,1020,3026,3375,0,3.75727237354625,4.23023986816406,2225,3.43341064453125,875,3.85654449462891,3.64449310302734,0,NaN
209154863,189,b_2,red,Y,color_change,figure_change,update,correct,21,1029,3034,3375,0,3.61401315168901,4.09417724609375,1425,3.20236206054688,2950,3.62710571289062,3.36224365234375,0,NaN
209154863,190,b_3,red,Y,no_color_change,no_figure_change,update,correct,4,1014,3019,3500,0,3.68603978012547,3.87905120849609,2750,3.46762847900391,25,3.46762847900391,3.65849304199219,1,125
209154863,191,b_3,blue,Y,color_change,no_figure_change,no_update,correct,19,1026,3031,3525,0,3.40039894797585,3.61594390869141,2975,3.19280242919922,575,3.50592041015625,3.60302734375,1,125
209154863,192,b_3,red,X,color_change,figure_change,update,correct,9,1018,3024,3525,0,3.53169051083651,3.64582824707031,1425,3.42362976074219,2950,3.59217834472656,3.45497131347656,0,NaN
209154863,193,b_3,blue,X,color_change,no_figure_change,no_update,correct,23,1031,3035,3325,0,3.41539903120561,3.70482635498047,1450,3.03564453125,2600,3.53220367431641,3.41339874267578,0,NaN
324124114,1,b_0,blue,Y,no_color_change,no_figure_change,update,correct,15,1024,3029,2425,0,3.12712506745991,3.35828399658203,1175,2.84799957275391,325,2.95803070068359,3.10691833496094,0,NaN
324124114,2,b_0,blue,X,no_color_change,figure_change,update,correct,22,1031,3035,2400,0,3.10433839496813,3.26424407958984,775,2.910888671875,2250,3.08606719970703,2.94258117675781,0,NaN
324124114,3,b_0,blue,X,no_color_change,no_figure_change,update,correct,19,1026,3031,2375,0,3.09358785528886,3.47438812255859,2375,2.61872100830078,1775,2.82600402832031,3.47438812255859,0,NaN
324124114,4,b_0,red,Y,color_change,figure_change,no_update,correct,48,1054,3059,3000,0,3.39445668270713,3.7093505859375,1700,3.0631103515625,25,3.0631103515625,3.17391967773438,0,NaN
324124114,5,b_0,blue,X,color_change,figure_change,update,correct,17,1025,3030,2300,0,3.17203372457753,3.35601043701172,525,2.99966430664062,1950,3.18638610839844,3.13486480712891,0,NaN
324124114,6,b_0,blue,X,no_color_change,no_figure_change,update,correct,148,1154,3159,2500,0,3.15655460763485,3.35995483398438,225,2.99121856689453,600,3.08880615234375,3.21894073486328,0,NaN
324124114,7,b_0,red,X,color_change,no_figure_change,no_update,correct,15,1022,3028,2625,0,3.14620529977899,3.31295776367188,1300,2.90341186523438,1750,3.26204681396484,3.03585815429688,1,125
324124114,8,b_0,red,Y,no_color_change,figure_change,no_update,correct,5,1015,3021,2875,0,3.31726949591386,3.56874084472656,775,2.98410034179688,2250,3.07096862792969,3.0948486328125,0,NaN
324124114,9,b_1,blue,X,no_color_change,no_figure_change,update,correct,7,1017,3022,2475,0,3.31873329564145,3.58443450927734,1025,3.05370330810547,2100,3.29888916015625,3.10946655273438,0,NaN
324124114,10,b_1,red,X,color_change,no_figure_change,no_update,correct,15,1022,3026,1650,0,3.35448016542377,3.86778259277344,1650,3.07737731933594,1100,3.13047027587891,3.86778259277344,0,NaN
324124114,11,b_1,red,X,no_color_change,no_figure_change,no_update,correct,21,1028,3034,1475,0,3.44633083020226,3.76322174072266,25,3.11770629882812,1075,3.76322174072266,3.45834350585938,0,NaN
324124114,12,b_1,blue,X,color_change,no_figure_change,update,correct,22,1028,3033,2450,0,3.19923882735403,3.47638702392578,25,2.87301635742188,1525,3.47638702392578,2.99386596679688,0,NaN
324124114,13,b_2,blue,X,no_color_change,no_figure_change,update,correct,19,1028,3034,2600,0,3.20787417763158,3.48206329345703,900,2.94200897216797,1825,3.26332855224609,3.14122772216797,0,NaN
324124114,14,b_2,red,Y,color_change,figure_change,no_update,correct,2,1010,3016,2450,0,3.08940301192434,3.24258422851562,1275,2.88374328613281,2050,3.23384094238281,3.08817291259766,0,NaN
324124114,15,b_2,red,Y,no_color_change,no_figure_change,no_update,correct,14,1020,3025,2350,0,3.07874890591236,3.17475891113281,1875,2.99800872802734,425,3.05754852294922,3.06047058105469,1,350
324124114,16,b_2,blue,Y,color_change,no_figure_change,update,correct,22,1029,3035,1725,0,3.17286284073539,3.48822784423828,1675,2.84444427490234,125,3.04741668701172,3.392822265625,1,125
324124114,17,b_2,red,X,color_change,figure_change,no_update,correct,44,1055,3059,1150,0,3.17990307097739,3.46580505371094,875,2.94313049316406,925,3.41891479492188,3.03421020507812,0,NaN
324124114,18,b_3,blue,X,no_color_change,no_figure_change,update,correct,7,1017,3022,2725,0,3.51643580386513,3.79476928710938,25,3.23849487304688,2100,3.79476928710938,3.51698303222656,0,NaN
324124114,19,b_3,blue,Y,no_color_change,figure_change,update,correct,20,1026,3032,2725,0,3.39846203452662,3.55170440673828,2300,3.1600341796875,1750,3.41648101806641,3.35868072509766,1,125
324124114,20,b_3,blue,Y,no_color_change,no_figure_change,update,correct,6,1014,3020,1625,0,3.21877664419321,3.36814880371094,475,2.89056396484375,1425,3.34774780273438,3.12152099609375,1,125
324124114,21,b_3,blue,X,no_color_change,figure_change,update,correct,89,1096,3101,1250,0,3.0589433557847,3.20579528808594,550,2.85771179199219,125,3.00538635253906,2.99398803710938,0,NaN
324124114,22,b_0,blue,Y,no_color_change,no_figure_change,update,correct,1393,2403,0,100,0,3.34902763366699,3.47896575927734,50,3.27169799804688,25,3.27169799804688,3.29738616943359,0,NaN
324124114,23,b_0,red,Y,color_change,no_figure_change,no_update,correct,0,0,0,0,0,NaN,NaN,25,NaN,25,NaN,NaN,0,NaN
324124114,24,b_0,red,X,no_color_change,figure_change,no_update,correct,5,1013,3018,2425,0,3.3652199193051,3.66546630859375,1650,3.05733489990234,275,3.60220336914062,3.42977905273438,0,NaN
324124114,25,b_0,red,X,no_color_change,no_figure_change,no_update,correct,14,1020,3025,2975,0,3.26107555188631,3.49559020996094,575,3.050048828125,2350,3.26282501220703,3.11173248291016,0,NaN
324124114,26,b_0,red,Y,no_color_change,figure_change,no_update,correct,23,1029,3036,1500,0,3.15600923632012,3.33960723876953,675,2.94209289550781,1050,3.17933654785156,3.12525939941406,0,NaN
324124114,27,b_1,blue,Y,no_color_change,no_figure_change,update,correct,12,1023,3027,2975,0,3.5490802162572,4.04205322265625,225,2.96628570556641,1900,3.70096588134766,3.15519714355469,0,NaN
324124114,28,b_1,red,Y,color_change,no_figure_change,no_update,correct,23,1033,3039,1825,0,3.30020017881651,3.47157287597656,600,3.09000396728516,1500,3.20081329345703,3.23651885986328,0,NaN
324124114,29,b_1,red,X,no_color_change,figure_change,no_update,correct,5,1013,3017,1950,0,3.21153723887908,3.47431182861328,1850,3.00418853759766,200,3.0279541015625,3.31281280517578,0,NaN
324124114,30,b_1,red,Y,no_color_change,figure_change,no_update,correct,76,1083,3088,2050,0,3.2584916080337,3.58094787597656,1100,2.98985290527344,1650,3.28146362304688,3.01801300048828,0,NaN
324124114,31,b_2,blue,X,no_color_change,no_figure_change,update,correct,25,1035,3040,2750,0,3.37036176982679,3.55349731445313,450,3.22985076904297,1950,3.45621490478516,3.25428771972656,0,NaN
324124114,32,b_2,blue,Y,no_color_change,figure_change,update,correct,15,1023,3028,3125,0,3.42490234375,3.64924621582031,2025,3.16726684570312,850,3.2958984375,3.41562652587891,0,NaN
324124114,33,b_2,blue,Y,no_color_change,no_figure_change,update,correct,4,1012,3016,2200,0,3.3153705382615,3.55442810058594,325,3.11467742919922,2000,3.42884063720703,3.19866180419922,0,NaN
324124114,34,b_2,blue,X,no_color_change,figure_change,update,correct,15,1022,3028,2100,0,3.25821138269761,3.43595886230469,1975,3.06512451171875,1225,3.22020721435547,3.40256500244141,1,125
324124114,35,b_3,blue,Y,no_color_change,no_figure_change,update,correct,19,1030,3035,2675,0,3.38999424984581,3.70461273193359,50,3.05194854736328,1050,3.66829681396484,3.22576141357422,0,NaN
324124114,36,b_3,red,X,color_change,figure_change,no_update,correct,15,1022,3028,2225,0,3.27068003107992,3.49677276611328,900,3.08029937744141,1900,3.26089477539062,3.25740814208984,0,NaN
324124114,37,b_3,red,Y,no_color_change,figure_change,no_update,correct,23,1030,3036,2550,0,3.33301857396176,3.73956298828125,600,2.90825653076172,2175,3.29093170166016,2.99142456054688,0,NaN
324124114,38,b_3,red,Y,no_color_change,no_figure_change,no_update,correct,14,1021,3027,1900,0,3.12069646935714,3.25308990478516,1850,2.96670532226562,1675,3.06343841552734,3.06533050537109,0,NaN
324124114,39,b_3,blue,X,color_change,figure_change,update,correct,22,1030,3037,2575,0,3.23977556730572,3.48060607910156,2000,2.88162231445312,225,3.17604827880859,3.35349273681641,0,NaN
324124114,40,b_3,red,X,color_change,no_figure_change,no_update,correct,101,1109,3113,2600,0,3.40114834434108,3.60149383544922,375,3.10816192626953,1950,3.42808532714844,3.25609588623047,1,150
324124114,41,b_3,red,X,no_color_change,no_figure_change,no_update,correct,26,1035,3040,800,0,3.23677109227036,3.41810607910156,550,3.08290863037109,650,3.17316436767578,3.39362335205078,1,125
324124114,52,b_2,red,X,no_color_change,no_figure_change,update,correct,7,1016,3022,2375,0,3.24520119114926,3.55528259277344,325,2.93691253662109,2100,3.23869323730469,3.01990509033203,0,NaN
324124114,53,b_2,blue,X,color_change,no_figure_change,no_update,correct,27,1035,3040,2125,0,3.33656243716969,3.47509765625,1175,3.14481353759766,75,3.15415191650391,3.20374298095703,0,NaN
324124114,54,b_2,red,X,color_change,no_figure_change,update,correct,78,1086,3090,1775,0,3.13955105675591,3.47782135009766,225,2.86261749267578,1225,3.08561706542969,2.95989990234375,1,150
324124114,55,b_2,blue,Y,color_change,figure_change,no_update,correct,14,1023,3027,2475,0,3.20090340062192,3.44743347167969,475,3.00716400146484,75,3.03061676025391,3.21367645263672,1,125
324124114,56,b_2,red,X,color_change,figure_change,update,correct,100,1107,3111,1325,0,3.12153423957105,3.33670043945312,225,2.9449462890625,1050,3.19340515136719,2.96564483642578,0,NaN
324124114,57,b_2,red,Y,no_color_change,figure_change,update,correct,73,1079,3084,1350,0,3.19472885131836,3.40260314941406,875,2.94190216064453,25,2.94190216064453,3.14942169189453,0,NaN
324124114,58,b_2,red,X,no_color_change,figure_change,update,correct,24,1030,3036,800,0,3.11934924125671,3.21967315673828,550,3.00594329833984,725,3.11167144775391,3.08073425292969,0,NaN
324124114,59,b_2,blue,Y,color_change,figure_change,no_update,correct,98,1106,3112,850,0,3.05916464669364,3.36251831054688,425,2.83528900146484,575,3.18124389648438,2.86902618408203,0,NaN
324124114,60,b_3,red,X,no_color_change,no_figure_change,update,correct,16,1029,3034,1800,0,3.28275012969971,3.66262054443359,200,3.00456237792969,1775,3.50020599365234,3.02394104003906,0,NaN
324124114,61,b_3,red,Y,no_color_change,figure_change,update,correct,83,1091,3096,1425,0,3.05867494855608,3.16058349609375,675,2.92321014404297,100,3.06746673583984,3.09750366210938,0,NaN
324124114,62,b_3,blue,X,color_change,figure_change,no_update,correct,22,1029,3035,1500,0,3.21498358054239,3.68128204345703,1525,2.75202941894531,50,3.09575653076172,3.68128204345703,0,NaN
324124114,63,b_3,red,Y,color_change,figure_change,update,correct,10,1016,3021,2400,0,3.40180503443668,3.73537445068359,350,3.03401947021484,2325,3.52845001220703,3.14163208007812,0,NaN
324124114,64,b_0,blue,X,no_color_change,no_figure_change,update,correct,25,1034,3039,3050,0,3.13036137631065,3.34099578857422,525,2.867431640625,1550,3.12168121337891,2.99639129638672,0,NaN
324124114,65,b_0,red,Y,color_change,figure_change,no_update,correct,15,1025,3031,2975,0,3.05923630563836,3.19618988037109,1900,2.91658782958984,50,2.966064453125,3.04898834228516,0,NaN
324124114,66,b_0,blue,X,color_change,figure_change,update,correct,19,1026,3031,3200,0,3.11652807938425,3.23372650146484,1425,3.00209045410156,2325,3.119873046875,3.01634979248047,0,NaN
324124114,67,b_0,blue,Y,no_color_change,figure_change,update,correct,24,1031,3036,1600,0,2.94557642936707,3.13481140136719,25,2.79530334472656,1100,3.13481140136719,2.80049133300781,1,125
324124114,68,b_0,red,X,color_change,figure_change,no_update,correct,58,1065,3071,2000,0,3.04707251654731,3.333740234375,1525,2.76932525634766,50,2.81700897216797,3.065185546875,0,NaN
324124114,69,b_0,blue,Y,color_change,figure_change,update,correct,12,1018,3023,2750,0,3.20902388723273,3.41717529296875,1950,3.02956390380859,125,3.08363342285156,3.24169158935547,0,NaN
324124114,70,b_0,red,X,color_change,figure_change,no_update,correct,22,1029,3035,2975,0,3.30360268040707,3.47454071044922,1250,3.13423919677734,75,3.22582244873047,3.22519683837891,1,125
324124114,71,b_0,red,X,no_color_change,no_figure_change,no_update,correct,10,1017,3022,3125,0,3.24310913085937,3.38585662841797,2200,3.04048919677734,475,3.24384307861328,3.33963012695312,0,NaN
324124114,72,b_0,blue,X,color_change,no_figure_change,update,correct,21,1027,3033,2700,0,3.28451457776521,3.42573547363281,750,2.92843627929688,100,3.04145050048828,3.08394622802734,1,150
324124114,73,b_0,blue,X,no_color_change,no_figure_change,update,correct,7,1014,3020,2600,0,3.14843733938117,3.40889739990234,950,2.89598846435547,1950,3.19731903076172,3.01122283935547,0,NaN
324124114,74,b_0,red,X,color_change,no_figure_change,no_update,correct,24,1035,3040,2150,0,2.9884112127896,3.14568328857422,1650,2.85005950927734,1300,3.08023834228516,2.97283172607422,0,NaN
324124114,75,b_1,blue,Y,no_color_change,no_figure_change,update,correct,5,1012,3018,2125,0,3.12191018392873,3.4312744140625,425,2.85619354248047,1900,3.24378967285156,3.02130889892578,0,NaN
324124114,76,b_1,red,Y,color_change,no_figure_change,no_update,correct,8,1015,3021,2150,0,2.95961894545444,3.15085601806641,1125,2.806884765625,525,3.02720642089844,2.94963836669922,0,NaN
324124114,77,b_1,blue,Y,color_change,no_figure_change,update,correct,49,1056,3061,2150,0,3.05684777193291,3.23655700683594,2125,2.90795135498047,550,2.988525390625,3.14759063720703,1,250
324124114,78,b_1,red,Y,color_change,no_figure_change,no_update,correct,35,1042,3048,2125,0,3.21494831758387,3.57726287841797,875,2.89649200439453,1275,3.10565948486328,2.93497467041016,0,NaN
324124114,79,b_1,blue,X,color_change,figure_change,update,correct,28,1040,3046,2200,0,3.13622421093201,3.34895324707031,1225,2.93770599365234,475,3.04134368896484,3.23617553710938,0,NaN
324124114,80,b_1,blue,Y,no_color_change,figure_change,update,correct,25,1035,3040,2300,0,3.16007667459467,3.35861206054688,1550,2.95387268066406,2025,3.18916320800781,3.08431243896484,0,NaN
324124114,81,b_1,blue,Y,no_color_change,no_figure_change,update,correct,10,1017,3022,2350,0,3.04081791005236,3.20652770996094,925,2.92266082763672,1500,3.07503509521484,3.09915924072266,0,NaN
324124114,82,b_1,red,Y,color_change,no_figure_change,no_update,correct,23,1030,3035,1750,0,3.18529521397182,3.40451812744141,1300,2.97198486328125,1350,3.13927459716797,3.02030944824219,1,125
324124114,83,b_1,blue,X,color_change,figure_change,update,correct,181,1188,3193,2325,0,3.33105608212051,3.56182098388672,1250,3.09842681884766,25,3.09842681884766,3.20503997802734,1,150
324124114,84,b_1,red,X,color_change,no_figure_change,no_update,correct,22,1029,3033,2125,0,3.11794720139614,3.34267425537109,1275,2.88724517822266,1800,3.20285034179688,3.12959289550781,0,NaN
324124114,85,b_2,blue,Y,no_color_change,no_figure_change,update,correct,14,1024,3030,2800,0,3.32787724545127,3.56751251220703,725,3.01525115966797,1525,3.36214447021484,3.16893005371094,1,125
324124114,86,b_2,blue,X,no_color_change,figure_change,update,correct,5,1013,3018,2825,0,3.15195047478927,3.31353759765625,2250,3.02865600585938,450,3.11620330810547,3.17720794677734,0,NaN
324124114,87,b_2,red,Y,color_change,figure_change,no_update,correct,14,1020,0,1950,0,3.22217946174817,3.36634063720703,1925,3.06421661376953,1775,3.25045776367188,3.30509185791016,0,NaN
324124114,88,b_2,blue,Y,color_change,no_figure_change,update,correct,643,1650,3655,2350,0,3.21182451750103,3.43152618408203,1050,3.06281280517578,1850,3.34539794921875,3.14720153808594,0,NaN
324124114,89,b_2,blue,X,no_color_change,figure_change,update,correct,10,1016,3021,2250,0,2.99647098117405,3.22550201416016,1600,2.77531433105469,750,3.14693450927734,3.02513122558594,0,NaN
324124114,90,b_2,red,Y,color_change,figure_change,no_update,correct,39,1046,3052,2675,0,3.08652825606497,3.33928680419922,2325,2.93423461914062,1400,3.011474609375,3.3096923828125,0,NaN
324124114,91,b_2,blue,X,color_change,figure_change,update,correct,8,1016,3021,3000,0,3.24946714702405,3.39605712890625,825,2.99459075927734,575,3.27543640136719,3.16944885253906,0,NaN
324124114,92,b_2,blue,X,no_color_change,no_figure_change,update,correct,17,1024,3029,2425,0,3.24980460719058,3.52394866943359,1225,3.03643035888672,300,3.1221923828125,3.38613891601562,0,NaN
324124114,93,b_3,blue,X,no_color_change,no_figure_change,update,correct,10,1019,3024,3225,0,3.33749967876234,3.52648162841797,875,3.14279174804688,125,3.26504516601562,3.29488372802734,1,150
324124114,94,b_3,red,X,color_change,no_figure_change,no_update,correct,18,1025,3030,2875,0,3.07870519537675,3.30259704589844,2225,2.89814758300781,650,2.94905090332031,3.09415435791016,0,NaN
324124114,95,b_3,red,X,no_color_change,no_figure_change,no_update,correct,7,1014,3019,2625,0,3.21746376439145,3.62458801269531,1975,2.96052551269531,1050,3.20280456542969,3.37563323974609,0,NaN
324124114,96,b_3,red,Y,no_color_change,figure_change,no_update,correct,16,1023,3028,2450,0,3.26664380525288,3.491943359375,775,3.01996612548828,2375,3.30901336669922,3.01996612548828,0,NaN
324124114,97,b_3,blue,Y,color_change,no_figure_change,update,correct,4,1012,3018,3250,0,3.10589013350637,3.36807250976562,2150,2.86175537109375,2125,3.01114654541016,3.29961395263672,0,NaN
324124114,98,b_3,red,Y,color_change,no_figure_change,no_update,correct,15,1024,3029,3075,0,3.24304913972553,3.49436187744141,325,2.87300872802734,2125,3.41130065917969,2.97969055175781,0,NaN
324124114,99,b_3,blue,X,color_change,figure_change,update,correct,2,1009,3014,2250,0,3.00367287529839,3.26174926757812,1225,2.77803039550781,1700,3.06450653076172,2.89327239990234,0,NaN
324124114,100,b_3,red,Y,color_change,figure_change,no_update,correct,140,1149,3154,2825,0,2.89850993909334,3.03737640380859,1725,2.78042602539062,775,2.88462066650391,2.83334350585938,0,NaN
324124114,101,b_3,blue,Y,color_change,no_figure_change,update,correct,22,1028,3034,1650,0,2.88325910425898,3.20140838623047,1450,2.64481353759766,900,2.87798309326172,3.02916717529297,0,NaN
324124114,102,b_3,blue,X,no_color_change,figure_change,update,correct,13,1021,3025,3400,0,3.16389296682257,3.37909698486328,2300,2.90017700195312,1575,3.06194305419922,3.29698944091797,0,NaN
324124114,103,b_3,blue,Y,no_color_change,figure_change,update,correct,22,1030,3036,3225,0,3.47599881760618,3.59780883789062,850,3.26198577880859,2150,3.495361328125,3.45641326904297,0,NaN
324124114,104,b_3,red,X,color_change,figure_change,no_update,correct,11,1019,3024,3075,0,3.40108883506373,3.72877502441406,2100,2.95420074462891,950,3.45832824707031,3.39845275878906,0,NaN
324124114,105,b_3,blue,Y,color_change,figure_change,update,correct,21,1028,3033,3000,0,3.13991466321443,3.32848358154297,2275,2.96856689453125,50,3.13169097900391,3.28977966308594,0,NaN
324124114,106,b_3,red,X,color_change,figure_change,no_update,correct,34,1040,3046,3125,0,3.16467192800421,3.31049346923828,675,2.98843383789062,250,3.09818267822266,3.22341156005859,2,175
324124114,107,b_3,red,Y,no_color_change,figure_change,no_update,correct,21,1027,3033,2575,0,3.05353281121505,3.24079132080078,150,2.81908416748047,2350,3.23737335205078,2.87708282470703,0,NaN
324124114,108,b_0,blue,Y,no_color_change,no_figure_change,update,correct,5,511,1513,2525,0,3.23681568346526,3.40979766845703,625,3.01436614990234,2350,3.08911895751953,3.04397583007812,0,NaN
324124114,109,b_0,red,Y,color_change,no_figure_change,no_update,correct,50,554,1556,2450,0,2.88624624955027,3.06095886230469,1575,2.73460388183594,2225,3.00732421875,2.84671783447266,0,NaN
324124114,110,b_0,blue,Y,color_change,no_figure_change,update,correct,8,511,1514,2700,0,2.91128411543997,3.02906799316406,2300,2.81339263916016,2000,2.83202362060547,3.02231597900391,0,NaN
324124114,111,b_0,blue,X,no_color_change,figure_change,update,correct,16,522,1525,1950,0,2.97650774219368,3.11309814453125,1250,2.82616424560547,25,2.82616424560547,3.09230041503906,0,NaN
324124114,112,b_0,blue,Y,no_color_change,figure_change,update,correct,2,505,1507,2350,0,3.02718199060318,3.24753570556641,1175,2.85596466064453,1825,2.98690032958984,2.91108703613281,0,NaN
324124114,113,b_0,blue,X,no_color_change,figure_change,update,correct,18,521,1525,1825,0,3.01986662982261,3.21926879882812,975,2.83190155029297,100,2.88568878173828,2.88966369628906,0,NaN
324124114,114,b_0,red,X,color_change,no_figure_change,no_update,correct,11,514,1517,2300,0,2.90695502168389,3.04463958740234,1550,2.73222351074219,2050,2.91922760009766,2.87384796142578,1,175
324124114,115,b_0,red,Y,no_color_change,figure_change,no_update,correct,8,512,1514,2600,0,2.96495321173417,3.15044403076172,1625,2.77711486816406,25,2.77711486816406,3.01298522949219,0,NaN
324124114,116,b_0,red,X,no_color_change,figure_change,no_update,correct,48,551,1555,1525,0,2.98203166838615,3.07894134521484,200,2.86228179931641,1525,3.06900787353516,2.91622161865234,0,NaN
324124114,117,b_0,blue,X,color_change,no_figure_change,update,correct,6,509,1511,1950,0,2.95792868198493,3.34331512451172,900,2.63654327392578,1800,2.83684539794922,2.71443939208984,0,NaN
324124114,118,b_0,blue,X,no_color_change,no_figure_change,update,correct,11,516,0,1950,0,2.98042688614283,3.22645568847656,1425,2.69572448730469,125,2.72341918945312,3.159423828125,0,NaN
324124114,119,b_0,blue,Y,no_color_change,figure_change,update,correct,534,1040,2042,2650,0,3.11479508249383,3.33086395263672,2000,2.80628967285156,1500,3.17201995849609,3.19116973876953,0,NaN
324124114,120,b_0,blue,X,no_color_change,figure_change,update,correct,4,507,1510,3150,0,3.1953777915553,3.45140838623047,875,2.86562347412109,250,3.10774993896484,3.07318878173828,0,NaN
324124114,121,b_0,blue,Y,no_color_change,figure_change,update,correct,10,514,1516,2675,0,3.07886497096012,3.21212005615234,1750,2.89025115966797,2375,2.99282836914062,2.89025115966797,0,NaN
324124114,122,b_0,red,Y,color_change,no_figure_change,no_update,correct,11,515,1518,1675,0,3.09131195965935,3.2974853515625,975,2.89830780029297,225,2.99290466308594,3.09315490722656,1,200
324124114,123,b_0,blue,X,color_change,figure_change,update,correct,7,511,1513,2725,0,3.11001667223479,3.37032318115234,1925,2.82264709472656,325,3.14588165283203,3.16136932373047,0,NaN
324124114,124,b_0,red,Y,color_change,figure_change,no_update,correct,3,506,1508,1700,0,3.03593267910722,3.20342254638672,25,2.85531616210938,1575,3.20342254638672,2.9556884765625,1,125
324124114,125,b_1,blue,X,no_color_change,no_figure_change,update,correct,13,518,1521,2750,0,3.30502263119346,3.62023162841797,450,2.97505187988281,2075,3.38275909423828,3.09046936035156,0,NaN
324124114,126,b_1,red,Y,color_change,figure_change,no_update,correct,5,509,1512,2750,0,3.00494625693873,3.14881896972656,825,2.81023406982422,2325,3.05715942382812,2.87692260742188,0,NaN
324124114,127,b_1,red,X,no_color_change,figure_change,no_update,correct,10,513,1516,2325,0,3.11067321452689,3.56124114990234,400,2.82040405273438,2350,3.16866302490234,2.82040405273438,0,NaN
324124114,128,b_1,blue,Y,color_change,figure_change,update,correct,4,508,1510,1875,0,2.96894602457682,3.15937805175781,1150,2.75838470458984,150,2.84293365478516,3.11428833007812,0,NaN
324124114,129,b_1,blue,X,no_color_change,figure_change,update,correct,9,512,1515,2700,0,3.18162978322882,3.48478698730469,1875,2.89404296875,350,3.11813354492188,3.36968994140625,0,NaN
324124114,130,b_1,red,X,color_change,no_figure_change,no_update,correct,3,508,1510,2950,0,3.57151898835835,3.77836608886719,925,3.26398468017578,2225,3.50509643554688,3.291015625,0,NaN
324124114,131,b_1,red,Y,no_color_change,figure_change,no_update,correct,8,512,1514,2975,0,3.18471824244449,3.36277770996094,1550,3.05157470703125,1325,3.14507293701172,3.33683776855469,0,NaN
324124114,132,b_1,blue,X,color_change,figure_change,update,correct,3,507,1510,2925,0,3.28098758898283,3.42377471923828,550,3.11624145507812,975,3.31272125244141,3.22036743164062,0,NaN
324124114,133,b_2,blue,X,no_color_change,no_figure_change,update,correct,12,517,1520,2775,0,3.33967606393914,3.626708984375,575,3.14426422119141,1700,3.402099609375,3.21825408935547,0,NaN
324124114,134,b_2,red,Y,color_change,figure_change,no_update,correct,9,513,1515,2850,0,3.1826221666838,3.46141815185547,1000,2.92496490478516,1800,3.103515625,3.01345062255859,0,NaN
324124114,135,b_2,blue,Y,color_change,no_figure_change,update,correct,6,511,1514,2800,0,3.1257314180073,3.24678039550781,1925,2.99008178710938,2325,3.03302764892578,3.09018707275391,0,NaN
324124114,136,b_2,red,Y,color_change,no_figure_change,no_update,correct,1,505,1508,2750,0,3.21650948775442,3.36398315429688,200,3.05368804931641,1850,3.19154357910156,3.09873199462891,0,NaN
324124114,137,b_2,red,Y,no_color_change,no_figure_change,no_update,correct,9,513,1515,2650,0,2.98758858128598,3.10597991943359,1225,2.87848663330078,25,2.87848663330078,3.00743103027344,1,125
324124114,138,b_3,blue,Y,no_color_change,no_figure_change,update,correct,21,525,0,525,0,3.40237553914388,3.52671813964844,475,3.08809661865234,525,3.34748840332031,3.08809661865234,0,NaN
324124114,139,b_3,blue,X,no_color_change,figure_change,update,correct,662,1166,2169,2375,0,3.14795484040913,3.36952209472656,1825,2.88691711425781,950,3.09066009521484,3.04824829101562,0,NaN
324124114,140,b_3,red,Y,color_change,figure_change,no_update,correct,36,539,1542,2475,0,3.3754778410259,3.67434692382812,2350,3.03291320800781,25,3.03291320800781,3.54708862304688,0,NaN
324124114,141,b_3,red,X,no_color_change,figure_change,no_update,correct,8,511,1514,2900,0,3.4412408126028,3.66191101074219,600,3.22743988037109,300,3.46456909179688,3.32735443115234,0,NaN
324124114,142,b_3,red,Y,no_color_change,figure_change,no_update,correct,20,524,1526,2475,0,3.1300776431435,3.35565948486328,25,2.84605407714844,2200,3.35565948486328,2.94915771484375,0,NaN
324124114,143,b_0,red,Y,no_color_change,no_figure_change,update,correct,36,1046,3050,3275,0,3.07508890252364,3.33264923095703,1175,2.73336791992188,2125,3.07064819335938,3.02014923095703,0,NaN
324124114,144,b_0,red,X,no_color_change,figure_change,update,correct,78,1085,3090,2250,0,2.97635345458984,3.10008239746094,925,2.81505584716797,450,2.85743713378906,2.99502563476562,0,NaN
324124114,145,b_0,red,X,no_color_change,no_figure_change,update,correct,191,1198,3204,3000,0,3.19495945980674,3.48020172119141,1125,2.92398071289062,900,3.06699371337891,3.05339050292969,0,NaN
324124114,146,b_0,red,X,no_color_change,no_figure_change,update,correct,56,1065,3069,2575,0,3.04905267012747,3.18047332763672,825,2.86444091796875,50,2.91169738769531,2.98974609375,0,NaN
324124114,147,b_0,blue,Y,color_change,figure_change,no_update,correct,11,1017,3023,1950,0,2.97179686717498,3.11745452880859,1450,2.76966857910156,1800,2.81327056884766,2.83955383300781,0,NaN
324124114,148,b_0,red,Y,color_change,no_figure_change,update,correct,54,1063,3069,1525,0,3.06208062941028,3.21376037597656,1125,2.81754302978516,25,2.81754302978516,3.13841247558594,0,NaN
324124114,149,b_0,red,X,no_color_change,figure_change,update,correct,10,1016,3022,1250,0,2.99194488525391,3.21844482421875,400,2.72087097167969,900,3.07646179199219,3.08983612060547,0,NaN
324124114,150,b_0,blue,Y,color_change,figure_change,no_update,correct,26,1035,3041,1900,0,3.08602478629664,3.27617645263672,1625,2.92589569091797,1000,3.05870819091797,3.06813049316406,1,250
324124114,151,b_0,blue,Y,no_color_change,no_figure_change,no_update,correct,60,1066,3071,2075,0,3.04560989931405,3.27063751220703,1425,2.87345886230469,775,2.97347259521484,3.20647430419922,1,175
324124114,152,b_0,red,X,color_change,figure_change,update,correct,26,1034,3039,2250,0,3.05848174042754,3.25505065917969,25,2.88653564453125,1200,3.25505065917969,3.15433502197266,0,NaN
324124114,153,b_0,blue,Y,color_change,figure_change,no_update,correct,12,1021,3026,2125,0,3.13264191571404,3.31824493408203,1825,2.90924072265625,2125,3.13441467285156,2.90924072265625,0,NaN
324124114,154,b_0,blue,X,no_color_change,figure_change,no_update,correct,19,1025,3032,1800,0,3.08572586268595,3.29710388183594,1525,2.87075805664062,175,2.92977905273438,3.06407928466797,0,NaN
324124114,155,b_1,red,Y,no_color_change,no_figure_change,update,correct,2,1012,3018,2150,0,3.23029629019804,3.44556427001953,650,2.99282073974609,1425,3.10390472412109,3.02805328369141,0,NaN
324124114,156,b_1,blue,X,color_change,figure_change,no_update,correct,15,1024,3030,2500,0,3.2545928151984,3.41028594970703,1675,3.08366394042969,50,3.08982086181641,3.21548461914062,0,NaN
324124114,157,b_1,blue,Y,no_color_change,figure_change,no_update,correct,3,1009,3015,1825,0,3.22567377863704,3.38587188720703,75,3.07491302490234,200,3.33258056640625,3.11799621582031,1,150
324124114,158,b_1,red,Y,color_change,no_figure_change,update,correct,18,1026,0,850,0,3.15117298473011,3.28643035888672,850,3.02117919921875,375,3.07406616210938,3.28643035888672,0,NaN
324124114,159,b_1,blue,X,color_change,figure_change,no_update,correct,1425,2433,4438,1175,0,3.1861678759257,3.36164855957031,1050,2.96291351318359,550,3.30716705322266,3.33497619628906,0,NaN
324124114,160,b_2,red,Y,no_color_change,no_figure_change,update,correct,15,1024,3030,1925,0,3.19557625906808,3.59771728515625,550,2.8302001953125,1425,3.24610137939453,3.29122161865234,0,NaN
324124114,161,b_2,red,X,no_color_change,figure_change,update,correct,21,1028,3034,2925,0,3.56972527754934,3.98773956298828,1775,3.17048645019531,1650,3.33807373046875,3.55250549316406,0,NaN
324124114,162,b_2,blue,Y,color_change,figure_change,no_update,correct,8,1015,3020,2675,0,3.40565482691715,3.67021179199219,525,3.14497375488281,2375,3.34510040283203,3.14497375488281,1,125
324124114,163,b_2,blue,Y,no_color_change,no_figure_change,no_update,correct,19,1029,3034,1825,0,3.15719175991947,3.30153656005859,275,3.02010345458984,1350,3.26528930664062,3.19586944580078,0,NaN
324124114,164,b_2,blue,X,no_color_change,figure_change,no_update,correct,10,1016,3022,2000,0,3.15893621444702,3.31175231933594,775,3.00691986083984,1200,3.16493988037109,3.19887542724609,0,NaN
324124114,165,b_2,red,Y,color_change,figure_change,update,correct,95,1103,3108,2675,0,3.21739694695724,3.34632873535156,675,3.11599731445312,1200,3.2275390625,3.20994567871094,0,NaN
324124114,166,b_2,blue,Y,color_change,no_figure_change,no_update,correct,158,1164,3170,2300,0,3.21678335770317,3.35350036621094,450,3.04944610595703,1875,3.2354736328125,3.25604248046875,0,NaN
324124114,167,b_2,red,Y,color_change,no_figure_change,update,correct,69,1076,3082,1900,0,3.22189420229429,3.44319915771484,1700,2.93727111816406,1200,3.21890258789062,3.29213714599609,0,NaN
324124114,168,b_2,red,Y,no_color_change,no_figure_change,update,correct,10,1019,3024,2925,0,3.17030109606291,3.43865203857422,1975,2.85334014892578,1475,3.27248382568359,3.32353973388672,0,NaN
324124114,169,b_2,blue,Y,color_change,no_figure_change,no_update,correct,18,1024,0,1525,0,3.30262981477331,3.48209381103516,1500,3.12483215332031,575,3.35284423828125,3.46292877197266,0,NaN
324124114,170,b_2,red,Y,color_change,no_figure_change,update,correct,1132,2142,4148,1125,0,3.13374549018012,3.53360748291016,25,2.78242492675781,350,3.53360748291016,3.26425170898438,0,NaN
324124114,171,b_2,blue,X,color_change,figure_change,no_update,correct,19,1026,3031,2800,0,3.32744931672749,3.58766937255859,675,3.10143280029297,2125,3.34652709960938,3.20442199707031,0,NaN
324124114,172,b_3,red,Y,no_color_change,no_figure_change,update,correct,9,1019,3025,2175,0,3.33077897696659,3.5804443359375,575,3.13634490966797,1025,3.27043914794922,3.35275268554688,0,NaN
324124114,173,b_3,red,Y,no_color_change,no_figure_change,update,correct,15,1022,3027,3100,0,3.34151908472965,3.48136138916016,1150,3.17315673828125,1775,3.34635925292969,3.36688232421875,1,300
324124114,174,b_3,red,Y,no_color_change,no_figure_change,update,correct,3,1010,3016,2825,0,3.29971213089792,3.49509429931641,550,3.14553833007812,1250,3.34963989257812,3.27699279785156,1,200
324124114,175,b_3,red,Y,no_color_change,no_figure_change,update,correct,18,1027,3033,3000,0,3.33317244680304,3.437744140625,575,3.15274047851562,1925,3.33155822753906,3.39552307128906,0,NaN
324124114,176,b_3,red,Y,no_color_change,no_figure_change,update,correct,26,1033,3039,3000,0,3.28842909963507,3.58697509765625,375,2.84896850585938,2200,3.42265319824219,2.87841033935547,0,NaN
324124114,177,b_3,red,X,no_color_change,figure_change,update,correct,12,1020,3026,2600,0,3.08218191046464,3.39057159423828,2325,2.90928649902344,1875,3.05047607421875,3.37903594970703,0,NaN
324124114,178,b_3,blue,Y,color_change,figure_change,no_update,correct,22,1028,3034,2975,0,3.44111067119398,3.61524200439453,950,3.29173278808594,275,3.45932006835938,3.36289215087891,0,NaN
324124114,179,b_0,red,X,no_color_change,no_figure_change,update,correct,66,318,820,2975,0,3.29380260266756,3.66018676757812,625,3.04464721679688,2075,3.46098327636719,3.05196380615234,0,NaN
324124114,180,b_0,blue,Y,color_change,figure_change,no_update,correct,1,253,755,3050,0,3.08329540051912,3.35879516601562,1350,2.8212890625,200,2.95426177978516,3.19049072265625,0,NaN
324124114,181,b_0,red,Y,color_change,no_figure_change,update,correct,3,255,757,2350,0,3.28916240491365,3.53164672851562,375,3.10558319091797,950,3.38497924804688,3.27447509765625,0,NaN
324124114,182,b_0,blue,X,color_change,figure_change,no_update,correct,2,255,756,2425,0,3.31236315275493,3.49172973632812,1425,3.11882019042969,1750,3.30854797363281,3.32379150390625,0,NaN
324124114,183,b_0,red,X,color_change,no_figure_change,update,correct,1,253,754,2800,0,3.39000236109683,3.54463195800781,1100,3.23230743408203,2300,3.30245208740234,3.25093078613281,0,NaN
324124114,184,b_0,red,X,no_color_change,no_figure_change,update,correct,4,256,758,2675,0,3.23752168354235,3.39546966552734,850,2.87431335449219,2375,3.31975555419922,2.87431335449219,0,NaN
324124114,185,b_0,blue,Y,color_change,figure_change,no_update,correct,1,252,754,2300,0,3.19176212433846,3.43672943115234,1775,2.96901702880859,1550,3.11956024169922,3.11989593505859,0,NaN
324124114,186,b_0,blue,X,no_color_change,figure_change,no_update,correct,4,256,757,2775,0,3.21244000886616,3.39297485351562,650,3.03032684326172,1550,3.09149932861328,3.32721710205078,0,NaN
324124114,187,b_1,red,X,no_color_change,no_figure_change,update,correct,4,256,758,2600,0,3.2113669947574,3.36729431152344,525,2.98312377929688,1475,3.34342956542969,3.16128540039062,0,NaN
324124114,188,b_1,red,Y,no_color_change,figure_change,update,correct,14,266,767,2875,0,3.21057530453331,3.415283203125,2375,3.06443023681641,1725,3.24150085449219,3.415283203125,0,NaN
324124114,189,b_1,blue,Y,color_change,no_figure_change,no_update,correct,6,257,759,2575,0,3.28438833136308,3.41352844238281,25,3.16996765136719,400,3.41352844238281,3.34565734863281,0,NaN
324124114,190,b_1,blue,X,no_color_change,figure_change,no_update,correct,2,255,756,2700,0,3.20802684583162,3.32041931152344,775,3.07965087890625,1375,3.29081726074219,3.25304412841797,0,NaN
324124114,191,b_1,red,Y,color_change,figure_change,update,correct,5,257,759,2925,0,3.27886569374486,3.53290557861328,1075,2.99652862548828,2200,3.37050628662109,3.13050079345703,0,NaN
324124114,192,b_1,blue,Y,color_change,no_figure_change,no_update,correct,2,254,755,2675,0,3.15010006553248,3.32874298095703,2000,2.88911437988281,50,2.92247009277344,3.25875091552734,0,NaN
324124114,193,b_2,red,Y,no_color_change,no_figure_change,update,correct,23,276,778,2775,0,3.25556833367599,3.49858093261719,900,2.98668670654297,1375,3.36058044433594,3.07302856445312,0,NaN
324124114,194,b_2,blue,Y,color_change,no_figure_change,no_update,correct,4,256,757,2775,0,3.20674020867599,3.41762542724609,2375,3.02860260009766,2125,3.08611297607422,3.41762542724609,1,150
324124114,195,b_2,red,Y,color_change,no_figure_change,update,correct,1,253,754,3250,0,3.35949136834396,3.50259399414062,25,3.10782623291016,525,3.50259399414062,3.28279876708984,0,NaN
324124114,196,b_2,blue,X,color_change,figure_change,no_update,correct,4,256,758,3075,0,3.11636601498252,3.4541015625,1925,2.82603454589844,950,3.11378479003906,3.33837890625,0,NaN
324124114,197,b_2,blue,Y,no_color_change,figure_change,no_update,correct,5,256,758,3325,0,3.62128491451866,3.79100799560547,1350,3.31714630126953,2300,3.48886108398438,3.55543022155762,1,125
324124114,198,b_2,red,X,color_change,figure_change,update,correct,3,255,757,3125,0,3.51356494301244,3.77621459960938,2175,3.190673828125,900,3.34926605224609,3.68971252441406,1,125
324124114,199,b_2,blue,X,color_change,no_figure_change,no_update,correct,5,257,759,3100,0,3.35907343814248,3.72182464599609,2275,3.13479614257812,750,3.40892028808594,3.68626403808594,0,NaN
324124114,200,b_2,red,X,color_change,no_figure_change,update,correct,3,255,756,3375,0,3.56683152851306,3.77532196044922,2350,3.12869262695312,1950,3.37355804443359,3.77172088623047,0,NaN
324124114,201,b_2,red,X,no_color_change,no_figure_change,update,correct,5,257,759,3350,0,3.75054831253855,4.02207946777344,900,2.93036651611328,2175,3.97788238525391,3.04644775390625,2,150
324124114,202,b_2,blue,X,color_change,no_figure_change,no_update,correct,2,254,756,3525,0,3.88498282181589,4.01955413818359,1325,3.58156585693359,200,3.81670379638672,3.96334075927734,1,250
324124114,203,b_2,red,X,color_change,no_figure_change,update,correct,6,257,758,3450,0,3.56137490523489,3.79020690917969,25,3.25597381591797,675,3.79020690917969,3.61243438720703,1,150
324124114,204,b_2,blue,Y,color_change,figure_change,no_update,correct,2,254,756,3025,0,3.37137137965152,3.57147979736328,75,2.90102386474609,1175,3.52731323242188,3.19158935546875,0,NaN
324124114,205,b_2,red,X,color_change,figure_change,update,correct,43,294,795,1750,0,2.76226914096886,3.05057525634766,425,2.49481201171875,750,2.9627685546875,2.93907928466797,0,NaN
324124114,206,b_3,red,X,no_color_change,no_figure_change,update,correct,1,253,755,2225,0,3.066082815106,3.27375030517578,2025,2.79241180419922,1325,3.04196929931641,3.11774444580078,0,NaN
324124114,207,b_3,red,X,no_color_change,no_figure_change,update,correct,6,258,760,2400,0,3.11363292493318,3.39212799072266,450,2.95093536376953,1725,3.15275573730469,3.09149932861328,0,NaN
324124114,208,b_3,blue,Y,color_change,figure_change,no_update,correct,36,288,790,2350,0,3.15091088477601,3.25937652587891,925,3.03064727783203,150,3.07314300537109,3.11753082275391,0,NaN
324124114,209,b_3,red,X,color_change,figure_change,update,correct,5,257,759,2975,0,3.28096184981497,3.66546630859375,2075,3.01654052734375,175,3.10514068603516,3.53819274902344,0,NaN
324124114,210,b_3,blue,Y,color_change,figure_change,no_update,correct,2,254,755,3525,0,3.66824650011565,3.80884552001953,525,3.48299407958984,2375,3.68353271484375,3.48299407958984,1,175
324124114,211,b_3,red,Y,color_change,no_figure_change,update,correct,5,256,758,3525,0,3.56476111161081,3.82162475585938,475,3.14884185791016,2350,3.73734283447266,3.64316558837891,0,NaN
324124114,212,b_3,blue,Y,color_change,no_figure_change,no_update,correct,1,253,754,3500,0,3.73609233655428,3.99909210205078,2250,3.34066009521484,375,3.63797760009766,3.98580169677734,0,NaN
324124114,213,b_3,blue,X,no_color_change,figure_change,no_update,correct,4,256,757,3525,0,4.03974256013569,4.19955444335938,1500,3.81859588623047,1950,4.05882263183594,4.00689697265625,0,NaN
324124114,214,b_3,red,Y,color_change,figure_change,update,correct,1,253,754,2250,0,3.69802973820613,4.13313293457031,100,3.08784484863281,2125,4.12754058837891,3.30732727050781,0,NaN
324124114,215,b_3,blue,X,color_change,figure_change,no_update,correct,4,256,757,2000,0,3.29462602403429,3.71391296386719,950,3.02928924560547,2025,3.32115173339844,3.02928924560547,0,NaN
324124114,216,b_3,red,Y,color_change,figure_change,update,correct,1,253,754,2925,0,2.95255090813888,3.116455078125,200,2.77071380615234,2150,3.04840850830078,2.94448089599609,0,NaN
