participant_id,trial_id,block,border_color,dominant,figure,is_color_change,is_figure_change,is_first,is_update,is_correct,event_fixation,event_stimulus_on,event_stimulus_off,event_Trial_Offset,event_Trial_Onset,trial_mean,trial_max,trial_max_latency,trial_min,trial_min_latency,first_bin,last_bin,valid_blinks,blinks_mean
207280074,2,b_0,red,red,Y,no_color_change,figure_change,not_first,update,correct,21,1031,3037,2200,0,-1.53197510908793,6.92242680061882,1675,-9.77639093148959,475,0,0.232060660465649,0,NaN
207280074,3,b_0,red,red,Y,no_color_change,no_figure_change,not_first,update,correct,9,1015,3019,2100,0,-7.61884746066288,-0.412946009830037,75,-17.8153022173864,1750,-0.668311259520507,-6.16886466814242,0,NaN
207280074,4,b_0,red,red,Y,no_color_change,no_figure_change,not_first,update,correct,14,1020,0,1125,0,-2.32026620027653,1.48851214562571,900,-8.68964643573209,1125,-3.62456361744994,-8.68964643573209,0,NaN
207280074,6,b_0,blue,red,X,no_color_change,figure_change,not_first,no_update,correct,15,1023,3027,1575,0,-4.20709658071007,8.89402079619016,1500,-24.3968745886829,1375,0,-15.2446364256399,0,NaN
207280074,8,b_0,red,red,X,no_color_change,no_figure_change,not_first,update,correct,17,1026,3032,3050,0,4.01855549611782,11.394291733137,1150,-6.66876303840962,225,-6.1582198224731,6.57365934470486,0,NaN
207280074,9,b_0,red,red,X,no_color_change,no_figure_change,not_first,update,correct,23,1029,3034,2875,0,-3.99561488069009,4.72255683058954,1350,-14.3505897325716,2325,-0.744591672126063,-7.47174613908906,0,NaN
207280074,15,b_1,red,red,Y,no_color_change,figure_change,not_first,update,correct,9,1017,3022,2800,0,2.59347767267233,12.2974736724855,2400,-8.09863162304374,825,2.01830152722589,11.305878621017,0,NaN
207280074,16,b_1,red,red,X,no_color_change,figure_change,not_first,update,correct,22,1028,3034,2975,0,1.13185585740681,7.55732815236428,2175,-8.38008063339171,1025,-0.323126459427911,-2.00534515469936,1,250
207280074,23,b_2,blue,red,X,no_color_change,figure_change,not_first,no_update,correct,6,1013,3018,2325,0,-2.01393167144997,5.62626156381322,2225,-11.4501159511753,1750,-0.288500548451566,-10.0549453301478,0,NaN
207280074,24,b_2,blue,red,X,no_color_change,no_figure_change,not_first,no_update,correct,38,1045,3050,1900,0,8.2293841848613,25.6614256943948,1600,-3.08631247508153,275,4.22361708870464,17.0447459082591,0,NaN
207280074,29,b_3,red,red,X,no_color_change,no_figure_change,not_first,update,correct,5,1012,3018,2975,0,-3.06496127034018,3.65609996123221,800,-10.136532172288,1325,-0.000745534249844582,-2.7323830256762,0,NaN
207280074,30,b_3,red,red,Y,no_color_change,figure_change,not_first,update,correct,67,1073,3079,2850,0,0.28399306990941,9.9871562718581,1875,-9.92817748228808,925,-2.48076487203797,-0.214224611702662,0,NaN
207280074,32,b_0,blue,blue,Y,no_color_change,figure_change,not_first,update,correct,22,1029,3035,2550,0,-1.70469285563207,3.86982647785609,1325,-12.4741266903136,2525,-1.12360831228514,-11.3890433942135,0,NaN
207280074,33,b_0,blue,blue,X,no_color_change,figure_change,not_first,update,correct,9,1015,3021,2975,0,5.44005289199428,14.7317180007978,1925,-2.55362641545838,175,0.328785267499796,2.19798557099389,0,NaN
207280074,38,b_0,blue,blue,X,no_color_change,no_figure_change,not_first,update,correct,15,1022,3028,2775,0,2.89450742252428,11.9002081125595,1825,-7.59700215773144,325,0.39707365652491,2.66511752614174,1,150
207280074,39,b_0,blue,blue,Y,no_color_change,figure_change,not_first,update,correct,4,1011,3015,3075,0,-4.90991693383189,-0.0788964333448092,525,-9.41080232979157,2075,-6.5808118510042,-7.66435266929207,0,NaN
207280074,43,b_1,red,blue,X,no_color_change,figure_change,not_first,no_update,correct,10,1017,3023,3075,0,-6.04461017613305,0.0191031200228338,100,-13.8951031568481,1825,-0.526601670026977,-6.89093269257326,0,NaN
207280074,44,b_1,red,blue,Y,no_color_change,figure_change,not_first,no_update,correct,22,1028,3034,3025,0,4.60815031278621,13.0003406467241,2450,-4.97318984115769,1425,1.54805011291808,5.82253567328195,0,NaN
207280074,47,b_1,red,blue,X,no_color_change,no_figure_change,not_first,no_update,correct,6,1012,3017,2900,0,-4.12176721815993,4.49926699761744,1050,-12.983379680838,2300,-0.885601241905178,-10.70519387973,0,NaN
207280074,51,b_2,blue,blue,X,no_color_change,no_figure_change,not_first,update,correct,113,1120,3126,2675,0,-9.30550040128017,4.06519000629855,950,-26.8010516672074,2275,-0.802349550512474,-9.12932071078197,0,NaN
207280074,52,b_2,blue,blue,X,no_color_change,no_figure_change,not_first,update,correct,9,1017,3022,2225,0,5.29718671439678,23.9102234836283,1700,-8.91409766417384,1850,-3.48821349491713,12.4644141281353,0,NaN
207280074,55,b_2,blue,blue,Y,no_color_change,no_figure_change,not_first,update,correct,15,1022,3026,3150,0,1.89366592066648,9.76412414821277,2275,-4.79613433011114,600,-1.32235247872181,-0.259101509787612,0,NaN
207280074,58,b_3,blue,blue,Y,no_color_change,figure_change,not_first,update,correct,7,1014,3019,2500,0,-5.77147014238583,3.37770325366655,100,-14.6232385065062,2375,-1.55091821616841,-8.2185802391152,0,NaN
207280074,59,b_3,blue,blue,Y,no_color_change,no_figure_change,not_first,update,correct,17,1025,3031,2950,0,0.0585965544169101,8.78870272327065,975,-10.9994229397816,2025,0.76076192108134,0.932116047061911,0,NaN
207280074,60,b_3,blue,blue,X,no_color_change,figure_change,not_first,update,correct,5,1011,3017,3150,0,-0.7887169626219,4.49187808584242,1800,-7.57552664274201,2275,0.941744837492436,-3.01321398715089,2,175
207280074,61,b_3,blue,blue,Y,no_color_change,figure_change,not_first,update,correct,15,1023,3028,3000,0,-2.6264038156359,3.31296845946851,350,-10.3331908947071,825,-3.79687481954566,-5.94869899638513,0,NaN
207280074,63,b_3,red,blue,Y,no_color_change,figure_change,not_first,no_update,correct,14,1021,3026,2500,0,0.938604154751265,8.496944006557,1575,-7.7892005641834,1750,-0.290388517208342,-1.17764486112893,1,125
207280074,67,b_3,blue,blue,X,no_color_change,no_figure_change,not_first,update,correct,11,1018,3024,2525,0,-3.7581858296144,1.78383392669107,1475,-15.5623527052098,325,-2.50288321716893,0.518226946798379,1,175
207280074,68,b_3,blue,blue,X,no_color_change,no_figure_change,not_first,update,correct,39,1045,3051,2175,0,29.135081157119,53.7284681597437,2150,3.94627896680961,75,16.9682898556602,22.7750009293712,1,125
207280074,71,b_0,red,blue,Y,no_color_change,figure_change,not_first,no_update,correct,65,1072,3077,1825,0,-0.360011292789931,7.6205578308933,1075,-10.1180706707,1850,-0.570153067665913,-10.1180706707,0,NaN
207280074,72,b_0,red,blue,Y,no_color_change,no_figure_change,not_first,no_update,correct,5,1011,3016,2350,0,3.92691079965002,13.0767780680257,675,-10.4772035655616,1550,3.15676083268252,-4.48442086553739,0,NaN
207280074,76,b_1,blue,blue,Y,no_color_change,figure_change,not_first,update,correct,20,1027,3032,2525,0,4.59057822694906,8.76239150769509,1400,-0.542179400693655,50,-0.542179400693655,3.46999831979556,0,NaN
207280074,79,b_2,red,blue,Y,no_color_change,figure_change,not_first,no_update,correct,22,1028,3034,2825,0,-2.11459595357128,6.28894194374891,525,-12.4764649934975,2450,-0.927085153050328,-3.40942176672684,0,NaN
207280074,80,b_2,red,blue,X,no_color_change,figure_change,not_first,no_update,correct,10,1018,3024,2575,0,-3.77464352961957,2.86244185818303,1250,-10.5653739720919,1800,-1.94468431691952,-9.32746845131788,1,150
207280074,81,b_2,red,blue,Y,no_color_change,figure_change,not_first,no_update,correct,21,1029,3033,1750,0,2.16308806746743,14.9340804851369,350,-11.8572881569677,1700,1.80911989428752,-7.22852920937704,1,125
207280074,82,b_2,red,blue,Y,no_color_change,no_figure_change,not_first,no_update,correct,22,1029,3034,2525,0,17.7392814062701,30.6286524025343,2000,-0.245347761421257,175,2.25175373877197,21.0536485964234,0,NaN
207280074,83,b_2,red,blue,Y,no_color_change,no_figure_change,not_first,no_update,correct,21,1028,3034,2750,0,-5.12302071675131,3.2666251841504,875,-15.7364663290679,1425,1.45180608809214,1.39253363895946,0,NaN
207280074,85,b_2,blue,blue,X,no_color_change,figure_change,not_first,update,correct,885,1891,3896,2000,0,3.15318074828058,7.69160129723878,625,-2.63797661683608,1200,-0.88085606159467,0.924838449306677,0,NaN
207280074,86,b_2,blue,blue,Y,no_color_change,figure_change,not_first,update,correct,4,1011,3017,2925,0,2.88365062645997,9.54167882886671,1100,-7.07073205725057,1675,0.0999361793706015,-1.95419756690035,0,NaN
207280074,87,b_2,blue,blue,X,no_color_change,figure_change,not_first,update,correct,14,1022,3026,2950,0,8.25628761085697,15.9675048159789,2050,-0.765740646862014,150,0.572594545270206,8.2735982966643,0,NaN
207280074,88,b_2,blue,blue,Y,no_color_change,figure_change,not_first,update,correct,176,1182,3187,2700,0,-7.41676757972535,-0.679612090657258,75,-14.2176753548808,2350,-0.886125304329298,-10.703550395118,0,NaN
207280074,90,b_3,blue,blue,X,no_color_change,figure_change,not_first,update,correct,17,1025,3030,2750,0,0.828617120653004,6.29354183683017,1700,-6.22956457530984,1750,-1.21657946709217,-5.73443620354378,0,NaN
207280074,92,b_3,red,blue,Y,no_color_change,figure_change,not_first,no_update,correct,15,1021,0,2325,0,13.0424239234681,23.3232144662457,1900,1.48859373249577,50,1.48859373249577,15.874234595596,0,NaN
207280074,93,b_3,red,blue,Y,no_color_change,no_figure_change,not_first,no_update,correct,525,1533,3538,2300,0,8.47175010498117,18.7761495054391,850,-8.4105153493872,2125,14.937908707085,-3.15784705683218,0,NaN
207280074,95,b_3,blue,blue,Y,no_color_change,figure_change,not_first,update,correct,13,1021,3025,2525,0,-0.286608213934305,3.21939318785297,1450,-6.62614063700448,425,0.586324486797594,-2.50996302336762,1,175
207280074,97,b_3,red,blue,Y,no_color_change,no_figure_change,not_first,no_update,correct,11,1019,3024,2550,0,-3.16742687952485,5.22400732858316,2500,-10.8261638072276,1775,-0.975868774351866,4.16059738476736,0,NaN
207280074,100,b_0,blue,blue,X,no_color_change,no_figure_change,not_first,update,correct,16,1024,3028,2725,0,-9.49516485467703,0.682845765251329,125,-17.0364493788092,2400,-2.50266287749879,-11.7053907247888,0,NaN
207280074,102,b_0,red,blue,Y,no_color_change,no_figure_change,not_first,no_update,correct,5,1012,3018,2725,0,-0.0704104364961172,7.22215707437783,1450,-9.25492936511165,1950,-6.51999626662965,2.34173261888751,1,125
207280074,105,b_1,blue,blue,Y,no_color_change,no_figure_change,not_first,update,correct,24,1031,3038,2425,0,4.71184861460699,11.5763193975484,1600,-3.07467206908548,775,0.588331593918184,8.34484416886652,0,NaN
207280074,109,b_1,red,blue,X,no_color_change,figure_change,not_first,no_update,correct,22,1028,3033,2675,0,5.92181022591841,16.1616343729315,900,-3.97363615524688,350,-1.39443000677383,13.1664687747097,0,NaN
207280074,112,b_1,red,blue,Y,no_color_change,figure_change,not_first,no_update,correct,22,1030,3035,2975,0,3.1652914358371,16.9775266380407,2250,-9.44308603689568,1150,-0.374721692111962,15.0654023536896,0,NaN
207280074,113,b_1,red,blue,X,no_color_change,figure_change,not_first,no_update,correct,15,1022,3027,2650,0,-8.54158966483597,1.91420911528151,2550,-20.7292225201072,975,-0.76697944593387,1.89722966934764,0,NaN
207280074,114,b_1,red,blue,X,no_color_change,no_figure_change,not_first,no_update,correct,22,1029,3034,2875,0,-7.01809216833615,-0.116128073961875,150,-13.6306452084792,1100,-0.156412812797498,-6.59882026479902,0,NaN
207280074,117,b_1,red,blue,Y,no_color_change,figure_change,not_first,no_update,correct,15,1022,3028,2475,0,-6.13861418636391,5.9311641184926,425,-19.8755063679222,1200,-9.8373591467889,-13.8646803976559,0,NaN
207280074,118,b_1,red,blue,Y,no_color_change,no_figure_change,not_first,no_update,correct,30,1037,3043,2100,0,4.15794567826425,24.6338595001932,2125,-12.8792899708667,1600,-1.14277011763312,24.6338595001932,0,NaN
207280074,120,b_2,blue,blue,X,no_color_change,figure_change,not_first,update,correct,22,1029,3034,2275,0,-5.75372229908151,2.92256119834698,1400,-20.6823202566466,2250,0.349385345198186,-8.63150779904628,0,NaN
207280074,121,b_2,blue,blue,Y,no_color_change,figure_change,not_first,update,correct,13,1021,3026,3025,0,13.7261676253117,27.89614260009,2100,-3.53548133153396,450,3.55235042735043,25.5884502923977,0,NaN
207280074,125,b_2,red,blue,X,no_color_change,figure_change,not_first,no_update,correct,10,1016,3022,2975,0,-1.54328287183237,4.76345417154943,625,-12.7537233947904,2325,2.29923917934066,-4.52501455295113,1,250
207280074,129,b_3,blue,blue,Y,no_color_change,no_figure_change,not_first,update,correct,156,1163,3170,3025,0,-3.33743126212585,3.45397540710215,1500,-13.1895906372066,750,1.38554321051708,-7.44803595296861,1,150
207280074,133,b_3,red,blue,X,no_color_change,figure_change,not_first,no_update,correct,19,1027,3031,3375,0,1.17155634084114,6.98932804983797,1175,-6.70278885234148,2525,1.00979029109283,-4.21185976776519,0,NaN
207280074,137,b_0,red,red,Y,no_color_change,figure_change,not_first,update,correct,68,572,1575,3025,0,1.67446161633309,10.459199981059,2075,-8.01557894238395,850,0.969303801214593,5.19953121115621,0,NaN
207280074,142,b_1,blue,red,X,no_color_change,figure_change,not_first,no_update,correct,12,515,1518,3125,0,0.747375960151768,5.84042120306871,1600,-8.99125636419578,2325,-0.0570668625135227,-3.18259411069978,1,225
207280074,143,b_1,blue,red,Y,no_color_change,figure_change,not_first,no_update,correct,5,508,1511,2600,0,-2.71959235015047,3.65619074978454,1050,-15.5304797471991,2550,0.755415110600396,-14.6534903763286,1,150
207280074,144,b_1,blue,red,X,no_color_change,figure_change,not_first,no_update,correct,61,564,1567,2350,0,9.71982196689261,16.5613344809213,900,-4.09606951104553,100,-1.71427790756452,11.1895296255311,1,250
207280074,146,b_1,red,red,X,no_color_change,no_figure_change,not_first,update,correct,10,513,0,1925,0,-2.72102076955592,1.87647034963901,550,-12.7081305264866,150,-1.61814512857954,-5.34573497201265,0,NaN
207280074,150,b_1,blue,red,Y,no_color_change,no_figure_change,not_first,no_update,correct,16,520,1523,1525,0,6.60449491070378,17.4522035164926,575,-7.60254706993544,150,-7.60254706993544,-6.32875262076267,1,125
207280074,152,b_2,red,red,X,no_color_change,no_figure_change,not_first,update,correct,5,508,1511,3075,0,2.00266711874915,9.31035622652641,1300,-8.19684636920519,1975,1.26709742384828,-1.38762806380495,0,NaN
207280074,154,b_2,blue,red,Y,no_color_change,no_figure_change,not_first,no_update,correct,3,506,1509,2775,0,1.53719954886689,10.1625034822175,525,-9.31446745287398,2075,-3.85435045036679,2.13993871297242,0,NaN
207280074,155,b_2,blue,red,X,no_color_change,figure_change,not_first,no_update,correct,11,515,1517,3100,0,-7.76828385259901,1.11091003687199,50,-13.9575180401294,2250,1.11091003687199,-4.78046463229805,0,NaN
207280074,157,b_2,red,red,X,no_color_change,no_figure_change,not_first,update,correct,59,563,1565,2250,0,-2.96718761387082,8.49397756886279,300,-17.164871120225,1825,-0.409118209529836,-0.691580658861255,1,125
207280074,158,b_2,red,red,Y,no_color_change,figure_change,not_first,update,correct,3,507,1509,2400,0,1.76460045368944,12.8007190549563,625,-9.64252696456086,925,0.0796096558808443,5.2336928608115,1,225
207280074,159,b_2,red,red,X,no_color_change,figure_change,not_first,update,correct,8,511,1514,2750,0,-1.07726196473612,9.27776822769579,1175,-12.7600009822941,850,3.64627587731147,-2.52425038677832,0,NaN
207280074,160,b_2,red,red,Y,no_color_change,figure_change,not_first,update,correct,70,573,1575,1925,0,14.6492241064494,25.199129723641,1050,-0.906074961038158,700,2.7780949588779,1.49304859043005,0,NaN
207280074,161,b_2,red,red,Y,no_color_change,no_figure_change,not_first,update,correct,43,546,1549,2675,0,4.37389700873803,17.1496592449034,1175,-13.469356635686,200,-13.469356635686,9.28290174300352,1,175
207280074,165,b_3,red,red,X,no_color_change,no_figure_change,not_first,update,correct,913,1416,2418,2950,0,8.28046831986221,25.2548871525256,125,-6.15916770751639,950,21.056147790978,4.38657642741647,0,NaN
207280074,166,b_3,red,red,Y,no_color_change,figure_change,not_first,update,correct,11,514,1516,2850,0,-2.47613340619211,3.94501396002998,1950,-11.2798898979514,975,0.280361034457954,-1.95161915460008,0,NaN
207280074,169,b_3,red,red,X,no_color_change,no_figure_change,not_first,update,correct,11,514,1516,3000,0,-9.9899032691469,0.733277566646237,75,-22.8721086564966,1100,0.593938518392505,-10.904329063842,0,NaN
207280074,170,b_3,red,red,X,no_color_change,no_figure_change,not_first,update,correct,6,510,1513,2625,0,5.98609563307833,15.6691576178958,1775,-5.94984331113235,2425,8.79434890832415,-0.158720270420332,0,NaN
207280074,175,b_3,red,red,Y,no_color_change,figure_change,not_first,update,correct,7,512,1514,2750,0,-11.0627767116268,-1.60528444084999,50,-21.0068966130165,675,-1.60528444084999,-11.6653631831068,1,175
207280074,180,b_0,red,red,X,no_color_change,figure_change,not_first,update,correct,21,1029,3034,1975,0,7.7879778300832,14.1541866198479,1125,-1.68500344307364,1900,0.0199750837113726,0.974048160978143,0,NaN
207280074,181,b_0,red,red,X,no_color_change,no_figure_change,not_first,update,correct,21,1028,3034,2425,0,2.43993282664952,11.4872152040188,900,-9.96275919780246,2025,0.257021307560166,-1.87269518936155,0,NaN
207280074,184,b_1,blue,red,Y,no_color_change,no_figure_change,not_first,no_update,correct,23,1029,3036,1175,0,-3.31199834974942,3.03521115757788,150,-10.7052647476994,750,1.36162655653523,-6.69459880320603,0,NaN
207280074,185,b_1,blue,red,X,no_color_change,figure_change,not_first,no_update,correct,309,1317,3323,1500,0,-0.442850238738586,6.07166120488986,950,-11.6704453073322,1400,5.06733386183811,-10.1950081547946,1,225
207280074,186,b_1,blue,red,Y,no_color_change,figure_change,not_first,no_update,correct,22,1029,3034,1950,0,8.08209948270371,17.9005035246727,1275,-4.0351795904666,100,-2.56542463914064,7.88452500839207,0,NaN
207280074,187,b_1,blue,red,X,no_color_change,figure_change,not_first,no_update,correct,7,1014,3019,1750,0,-3.15333569958714,7.55965534917603,1700,-18.5108788694119,400,-0.989902309690294,6.84862294189352,0,NaN
207280074,191,b_2,blue,red,X,no_color_change,no_figure_change,not_first,no_update,correct,5,1012,3018,1050,0,-2.85789790926197,8.46645453419694,400,-13.3605767418822,350,-0.688892119332593,7.4095610365417,0,NaN
207280074,192,b_2,blue,red,X,no_color_change,no_figure_change,not_first,no_update,correct,14,1021,3027,2200,0,1.41574849295744,8.64217763722264,2200,-8.29238313509084,600,1.89237289220644,6.61203794988668,0,NaN
207280074,195,b_2,blue,red,Y,no_color_change,figure_change,not_first,no_update,correct,25,1032,3038,1725,0,0.730774481317,6.36282154065182,900,-8.77811596156529,1625,-2.16035587340102,-8.39334321870558,0,NaN
207280074,198,b_3,blue,red,X,no_color_change,figure_change,not_first,no_update,correct,15,1021,3026,2525,0,0.585069098233159,7.86004865791888,1325,-8.20080365333227,550,2.66073066645396,0.72812387827544,0,NaN
207280074,201,b_3,blue,red,X,no_color_change,no_figure_change,not_first,no_update,correct,22,1030,3036,2525,0,9.90220535798383,15.6589835708231,1125,-1.06675278192655,2125,1.40260229550989,12.6955421897496,0,NaN
207280074,202,b_3,blue,red,X,no_color_change,no_figure_change,not_first,no_update,correct,12,1018,3025,1875,0,-6.51799078009938,-0.579057654313601,125,-12.1297970424475,600,-3.35269113332934,-9.38490091600312,1,125
207280074,204,b_3,red,red,X,no_color_change,figure_change,not_first,update,correct,22,1029,3033,2475,0,2.87430838480692,11.5344313638022,1825,-6.85839217298975,2450,0.794132065695962,-6.29032520381871,1,225
207280074,207,b_3,red,red,Y,no_color_change,figure_change,not_first,update,correct,20,1027,3034,2225,0,2.95085883063028,9.0140710034389,625,-5.33673775757102,775,-1.11568903006709,-3.96420308467076,1,175
207280074,208,b_3,red,red,X,no_color_change,figure_change,not_first,update,correct,6,1013,3018,2850,0,5.2896886616741,11.2044379213916,1850,-0.675994856780534,200,-0.675994856780534,3.90414817322242,1,175
207280074,209,b_3,red,red,Y,no_color_change,figure_change,not_first,update,correct,15,1023,3030,2900,0,-3.25439918130927,1.73357771849,350,-15.6748545129871,2350,1.00254528556029,-11.4349607591981,1,125
207280074,210,b_3,red,red,Y,no_color_change,no_figure_change,not_first,update,correct,5,1012,3017,2275,0,1.48206636209834,10.4090453095182,1525,-8.71543832389227,2125,-0.218740807229011,-6.49584769605588,1,150
208827162,3,b_0,red,blue,Y,no_color_change,figure_change,not_first,no_update,correct,11,1018,3022,3000,0,-0.653178764566285,5.95680893241152,2225,-11.2785237798372,2325,0,-5.13071964098505,1,225
208827162,4,b_0,red,blue,X,no_color_change,figure_change,not_first,no_update,correct,22,1029,3035,3175,0,-12.8740127299016,3.40457790942563,1325,-23.9823851210491,150,-23.9823851210491,-14.3542524217264,1,125
208827162,5,b_0,red,blue,Y,no_color_change,figure_change,not_first,no_update,correct,9,1016,3021,2875,0,-5.1024009181992,4.62601612365467,275,-16.0843169754116,2075,-2.08993458910106,0.503234565354532,1,175
208827162,9,b_1,blue,blue,Y,no_color_change,figure_change,not_first,update,correct,8,1016,3021,2475,0,10.1298228721998,22.2411538926023,400,-3.79073882520963,2425,0,-3.79073882520963,0,NaN
208827162,11,b_1,red,blue,Y,no_color_change,no_figure_change,not_first,no_update,correct,10,1017,3023,2875,0,2.63945844682342,16.3468712143628,2375,-7.62577483061843,1850,6.66398589814597,7.56128464450734,1,125
208827162,16,b_2,blue,blue,X,no_color_change,no_figure_change,not_first,update,correct,23,1030,3036,2350,0,5.2314663476625,15.9732241967996,2325,-6.38452934869839,300,0.508260015123525,13.6829999347034,1,125
208827162,18,b_2,red,blue,Y,no_color_change,figure_change,not_first,no_update,correct,21,1030,3035,2600,0,-3.5791337530965,3.65648861452647,1550,-8.85860415284934,2400,-0.0975715524718197,-8.15009438293964,0,NaN
208827162,19,b_2,red,blue,X,no_color_change,figure_change,not_first,no_update,correct,8,1016,3022,2475,0,5.11285826679432,9.82677881970001,1500,-2.73077003443063,125,-1.33566740418972,3.24664922304694,0,NaN
208827162,22,b_2,red,blue,X,no_color_change,figure_change,not_first,no_update,correct,17,1025,3031,2550,0,-2.61762840493137,7.03215803402819,1650,-11.4739536593664,2250,-2.47162224186002,-6.96296905220231,0,NaN
208827162,23,b_2,red,blue,X,no_color_change,no_figure_change,not_first,no_update,correct,4,1010,3015,2575,0,-1.09060379700861,9.58707883638139,1800,-7.40341533519317,700,-2.69958012793417,-1.45194014709612,0,NaN
208827162,24,b_2,red,blue,X,no_color_change,no_figure_change,not_first,no_update,correct,16,1025,3031,2625,0,9.70333791351882,20.9784069883379,1600,-5.86949943698441,2425,8.17860739212175,-5.86949943698441,0,NaN
208827162,25,b_2,red,blue,X,no_color_change,no_figure_change,not_first,no_update,correct,31,1040,3045,2500,0,-0.00730804763913155,11.6712658914262,2425,-12.7709827077183,950,-0.249683677773092,11.6712658914262,0,NaN
208827162,26,b_2,red,blue,X,no_color_change,no_figure_change,not_first,no_update,correct,12,1018,3024,2825,0,-5.30288669676754,1.89885122726432,100,-12.2061941688279,1650,1.89885122726432,-10.1220544150979,1,200
208827162,27,b_2,red,blue,Y,no_color_change,figure_change,not_first,no_update,correct,22,1028,3033,2150,0,1.82650040247368,15.4338920652901,2125,-11.5700481912416,1050,3.01793378220684,14.3553261819549,0,NaN
208827162,28,b_2,red,blue,Y,no_color_change,no_figure_change,not_first,no_update,correct,12,1019,3025,2675,0,-1.87867725354087,5.57239404228545,1425,-9.45814304155864,2425,-1.47250577655316,-9.45814304155864,0,NaN
208827162,32,b_3,blue,blue,X,no_color_change,no_figure_change,not_first,update,correct,22,1029,3034,1925,0,-6.24698698477832,10.974786749749,1675,-28.2618286223926,1250,7.38798549159041,-20.302711622705,0,NaN
208827162,33,b_3,blue,blue,Y,no_color_change,figure_change,not_first,update,correct,40,1049,0,1025,0,14.5946279420175,33.673780443549,650,-14.9575118522626,1000,16.9743561456123,21.0460764873755,0,NaN
208827162,34,b_3,blue,blue,Y,no_color_change,no_figure_change,not_first,update,correct,654,1660,3666,1775,0,-3.20627011811773,15.4858117705561,1225,-20.9001592744765,675,1.26951850858039,-4.82106854218311,0,NaN
208827162,35,b_3,blue,blue,Y,no_color_change,no_figure_change,not_first,update,correct,23,1032,3039,3200,0,6.5097012884735,14.7230533459826,1575,-5.1521564620886,50,-5.1521564620886,6.46156733144984,1,150
208827162,49,b_1,red,red,X,no_color_change,no_figure_change,not_first,update,correct,25,1032,3038,2375,0,0.0858886938219781,7.95274488741825,1450,-5.33317694121715,175,-0.928886858535094,-3.19801299700798,1,125
208827162,50,b_1,red,red,X,no_color_change,no_figure_change,not_first,update,correct,142,1149,3154,2775,0,1.30105499359088,6.67273846895844,100,-3.71585687771562,1450,1.78063138131348,2.58266909538759,2,162.5
208827162,52,b_1,blue,red,Y,no_color_change,figure_change,not_first,no_update,correct,13,1022,3027,2550,0,-3.26819094635001,4.98450232978222,800,-9.62312950304822,2125,-4.95104378348421,-7.69751832009361,1,350
208827162,56,b_2,blue,red,Y,no_color_change,figure_change,not_first,no_update,correct,1638,2645,1115,100,0,-6.97941846789456,-3.65914776878533,100,-8.66924162250396,75,-8.60986601239439,-3.65914776878533,0,NaN
208827162,61,b_3,blue,red,Y,no_color_change,no_figure_change,not_first,no_update,correct,9,1016,3022,2300,0,0.859596726344385,8.47648882852511,1550,-7.31509224059678,2250,-1.42689116542337,-4.63739628762595,0,NaN
208827162,62,b_3,blue,red,Y,no_color_change,no_figure_change,not_first,no_update,correct,20,1026,3032,3000,0,8.64602291257936,16.8232306077858,825,2.39661963833983,150,6.1437616916003,5.24645513213726,1,250
208827162,63,b_3,blue,red,X,no_color_change,figure_change,not_first,no_update,correct,21,1028,3034,3300,0,6.64912369057212,19.1128506197,1475,-5.00772226698899,1275,6.9279766701201,5.27800161160354,1,125
208827162,65,b_3,red,red,X,no_color_change,no_figure_change,not_first,update,correct,5,1012,3016,2850,0,-0.811847141327323,12.15785142142,2325,-14.4792358634512,2125,-6.32004226057818,2.73673518895966,0,NaN
208827162,67,b_3,blue,red,X,no_color_change,figure_change,not_first,no_update,correct,3,1009,3015,1725,0,5.34026898373399,9.63134355059933,850,-0.319160355417736,1525,2.87459001729381,2.09505635398652,0,NaN
208827162,70,b_3,blue,red,X,no_color_change,figure_change,not_first,no_update,correct,22,1028,3033,2800,0,4.93652044287874,21.5847245227621,2400,-10.3681239345751,2425,5.01794018650067,-10.3681239345751,1,350
208827162,73,b_3,blue,red,X,no_color_change,figure_change,not_first,no_update,correct,135,1142,3147,2150,0,-8.13726539218511,-2.81266718795013,1700,-16.4134326515494,625,-15.81361372896,-3.38532449895058,1,125
208827162,77,b_0,blue,red,X,no_color_change,no_figure_change,not_first,no_update,correct,24,1032,3036,3100,0,5.44770600200691,12.2126332922157,1650,-2.07951013288998,2125,2.93668430293971,5.48442232850104,0,NaN
208827162,78,b_0,blue,red,Y,no_color_change,figure_change,not_first,no_update,correct,13,1020,3025,2475,0,6.86576142793238,16.3616432430307,2425,-0.407025616068665,1950,8.69796044772818,16.3616432430307,0,NaN
208827162,81,b_1,blue,red,X,no_color_change,no_figure_change,not_first,no_update,correct,12,1018,3025,3075,0,-8.46099222620878,2.29046419896152,525,-17.5176609542487,1200,-9.79631404185145,-11.493771310142,2,125
208827162,82,b_1,blue,red,X,no_color_change,no_figure_change,not_first,no_update,correct,22,1029,3033,2675,0,2.82765246628661,12.1153695707584,250,-6.25755507158233,2425,2.53093320748908,-6.25755507158233,0,NaN
208827162,83,b_1,blue,red,X,no_color_change,no_figure_change,not_first,no_update,correct,10,1017,3024,2725,0,-3.31057716411002,9.08462972872941,800,-16.8472072590284,250,-7.61335159563308,-4.9760837739781,1,175
208827162,86,b_2,blue,red,Y,no_color_change,no_figure_change,not_first,no_update,correct,114,1120,3125,2325,0,-3.58664617093158,9.39065974081095,1875,-14.2599800327001,825,-1.84408143185797,3.12001118940479,0,NaN
208827162,87,b_2,blue,red,Y,no_color_change,no_figure_change,not_first,no_update,correct,22,1030,3036,2925,0,-6.22247162345631,6.77286847285596,175,-19.1545577643003,575,0.311095433701624,1.35816938429502,1,200
208827162,90,b_3,red,red,X,no_color_change,no_figure_change,not_first,update,correct,318,1324,3330,1100,0,-1.47790142784136,9.37866180156931,250,-9.51300290507339,1100,7.67842045375085,-7.022395128122,0,NaN
208827162,91,b_3,red,red,Y,no_color_change,figure_change,not_first,update,correct,16,1025,3029,2600,0,2.36776081401771,8.54682179858342,1750,-3.15976584548716,2125,4.28843247573788,-1.20937346370241,1,125
208827162,93,b_3,blue,red,Y,no_color_change,no_figure_change,not_first,no_update,correct,16,1023,3029,2700,0,6.6192369759084,12.3968829994419,1450,0.777265260273182,100,0.777265260273182,9.81280570084236,1,150
208827162,95,b_3,red,red,Y,no_color_change,figure_change,not_first,update,correct,65,1072,3078,2850,0,-0.647770081062077,9.17630630273739,300,-9.30307411955789,1050,0.766796735728718,-4.11673533256744,0,NaN
208827162,100,b_0,blue,blue,Y,no_color_change,no_figure_change,not_first,update,correct,14,1021,3026,1775,0,8.32221991436761,14.1729576310862,725,1.43277933832709,75,1.51470817727841,2.08406484082397,0,NaN
208827162,101,b_0,blue,blue,X,no_color_change,figure_change,not_first,update,correct,10,1019,3025,3000,0,-3.00754200875657,6.59307604597315,2100,-10.7179749055051,2200,-0.588305247179136,-9.6668135680958,1,175
208827162,103,b_0,red,blue,X,no_color_change,no_figure_change,not_first,no_update,correct,8,1015,0,1475,0,0.275354348949614,11.138448025132,1025,-10.0537103138591,75,-10.0537103138591,2.218547423944,0,NaN
208827162,109,b_1,blue,blue,Y,no_color_change,no_figure_change,not_first,update,correct,145,1152,3158,2875,0,-6.40052504373737,2.30955460774717,2350,-11.8794574185429,1000,-3.93301636134807,0.817248024751777,1,300
208827162,110,b_1,blue,blue,Y,no_color_change,no_figure_change,not_first,update,correct,8,1015,3019,2375,0,-0.515259983453472,13.817417461617,2350,-13.6633335479776,2100,0.193179832025535,2.4775313457275,1,150
208827162,111,b_1,blue,blue,X,no_color_change,figure_change,not_first,update,correct,104,1112,3117,2175,0,0.907819705459413,17.4449182658138,2075,-15.5283108268183,1975,12.3084577114428,2.20942904524995,1,125
208827162,112,b_1,blue,blue,X,no_color_change,no_figure_change,not_first,update,correct,5,1013,3018,2250,0,7.94007981266426,26.5928554552536,1450,-13.4836848839848,1650,7.29519260234814,11.606902666046,0,NaN
208827162,114,b_1,red,blue,X,no_color_change,no_figure_change,not_first,no_update,correct,60,1067,3072,2575,0,-10.6463965048037,16.9288371102263,150,-29.2420406691901,100,-10.9456160186141,-8.96930147962443,0,NaN
208827162,115,b_1,red,blue,X,no_color_change,no_figure_change,not_first,no_update,correct,15,1022,3029,1125,0,-7.03698726382668,0.278431450976726,225,-15.0544085720444,700,-12.3423129142862,-0.927290059797215,0,NaN
208827162,117,b_1,blue,blue,Y,no_color_change,no_figure_change,not_first,update,correct,14,1020,0,1875,0,-3.90115474967312,5.54162319022308,300,-13.2890134840417,150,-6.2254535358104,-2.57231270795921,0,NaN
208827162,118,b_1,blue,blue,X,no_color_change,figure_change,not_first,update,correct,21,1029,3034,900,0,-27.7590569589833,15.5533716875158,175,-45.3687665922787,475,-40.5484238614882,-10.9915443359335,0,NaN
208827162,119,b_1,blue,blue,X,no_color_change,no_figure_change,not_first,update,correct,22,1029,3035,1625,0,-8.23809221923094,22.9810268049201,125,-33.3360739272009,950,-1.9196904021216,-2.68125682360069,0,NaN
208827162,121,b_1,red,blue,X,no_color_change,figure_change,not_first,no_update,correct,22,1030,3034,1925,0,15.8138297403909,59.4844060450582,275,-18.6048662054314,1925,7.40197170943129,-11.4501880189489,0,NaN
208827162,124,b_2,red,blue,Y,no_color_change,figure_change,not_first,no_update,correct,3,1011,3017,1850,0,-5.96356732243179,6.79497043118792,1425,-24.3709019923064,1475,-1.71579491301601,-6.24539243268072,1,200
208827162,125,b_2,red,blue,Y,no_color_change,no_figure_change,not_first,no_update,correct,41,1048,3054,2250,0,-9.10835839595156,8.84070189637923,1300,-22.7763351656381,2175,-17.7897683202374,-19.980890072955,0,NaN
208827162,127,b_2,blue,blue,Y,no_color_change,no_figure_change,not_first,update,correct,12,1020,3027,2400,0,11.1138965230104,32.8222179636188,1125,-7.09978322602483,1900,-0.505225223431495,4.29242336380447,1,150
208827162,128,b_2,blue,blue,Y,no_color_change,no_figure_change,not_first,update,correct,20,1028,3033,2950,0,6.68734585992528,33.0111491613807,250,-5.09325018484648,850,2.72526948671052,1.92045764096976,2,125
208827162,129,b_2,blue,blue,Y,no_color_change,no_figure_change,not_first,update,correct,20,1027,3033,1600,0,3.34390355294001,14.6797460253146,425,-4.93975237928605,600,3.93347668138516,1.88823456284216,1,125
208827162,133,b_2,red,blue,X,no_color_change,figure_change,not_first,no_update,correct,22,1028,3035,2775,0,-0.0716532725339863,17.4609369388351,175,-14.7606414817865,500,10.2380416513032,-7.9833260706128,1,125
208827162,134,b_2,red,blue,X,no_color_change,no_figure_change,not_first,no_update,correct,15,1023,3028,3075,0,4.85323662804755,26.0002145506186,1500,-7.8666005986984,1775,-0.00153250441873354,21.6762533331971,1,175
208827162,137,b_3,blue,blue,X,no_color_change,figure_change,not_first,update,correct,23,1032,3037,2275,0,-2.18870317283778,7.49863820990011,1300,-12.8227013626479,1675,0.434057190895089,-2.65688465316171,1,125
208827162,138,b_3,blue,blue,X,no_color_change,no_figure_change,not_first,update,correct,13,1021,3026,2175,0,4.11323654974039,12.0278714563337,1475,-2.91002762569234,2100,1.8609795060144,6.16275947442918,0,NaN
208827162,139,b_3,blue,blue,X,no_color_change,no_figure_change,not_first,update,correct,21,1030,3035,1025,0,-2.71177895624943,10.0062371532861,150,-14.1926315857158,1050,2.81186302268308,-14.1926315857158,0,NaN
208827162,140,b_3,blue,blue,Y,no_color_change,figure_change,not_first,update,correct,12,1020,3024,2825,0,4.20384625281234,25.471001732032,2300,-7.30878897675025,1800,4.5910908906697,3.74051362708724,0,NaN
208827162,141,b_3,blue,blue,X,no_color_change,figure_change,not_first,update,correct,21,1028,3034,2825,0,-14.1341357614995,9.25436129983527,675,-28.0935471242943,2200,-9.31278354161988,-9.864615396844,1,125
208827162,142,b_3,blue,blue,Y,no_color_change,figure_change,not_first,update,correct,21,1028,3034,2175,0,11.0187054507562,28.3060015497967,1575,-10.039350700816,2050,-2.61622844104083,28.0808519338383,0,NaN
208827162,144,b_3,red,blue,Y,no_color_change,figure_change,not_first,no_update,correct,8,1015,3020,2150,0,-9.68033332079836,5.96312130413935,300,-25.9187709765063,2000,4.49536519098608,4.47358957967077,1,300
208827162,145,b_3,red,blue,Y,no_color_change,no_figure_change,not_first,no_update,correct,21,1029,3033,1325,0,-8.35635613885111,9.98040666504075,200,-27.6129613631009,1225,-1.42444371876539,-4.38803897172197,0,NaN
208827162,147,b_0,red,red,Y,no_color_change,no_figure_change,not_first,update,correct,12,1019,3025,2775,0,-1.85508912343577,3.13713940836945,1775,-11.388981642985,1875,0.430355961415216,-10.8468368318335,0,NaN
208827162,149,b_0,blue,red,Y,no_color_change,no_figure_change,not_first,no_update,correct,12,1020,3025,3100,0,4.33058338520829,9.40570187298326,750,-1.0588484487949,100,-1.0588484487949,5.35575865736485,0,NaN
208827162,151,b_1,red,red,Y,no_color_change,no_figure_change,not_first,update,correct,24,1031,3035,2800,0,0.844355859723098,5.24114847095133,1525,-2.63231106957335,2325,-0.0565106826925188,-1.12695342215653,0,NaN
208827162,152,b_1,red,red,X,no_color_change,figure_change,not_first,update,correct,10,1019,3023,3175,0,5.61748973842701,13.4562576170951,2175,-1.41941585066165,100,-0.415124748316742,8.55467770114126,1,125
208827162,153,b_1,red,red,Y,no_color_change,figure_change,not_first,update,correct,23,1031,3037,2675,0,-0.128997593758611,4.05372172401366,2025,-5.88310118934045,2375,1.47808942313807,-4.2462210350018,1,125
208827162,155,b_1,blue,red,X,no_color_change,no_figure_change,not_first,no_update,correct,22,1029,3034,2575,0,-1.52213586366096,4.31763374598964,200,-7.6282787527919,2325,-1.21571851782785,-7.07032392318744,0,NaN
208827162,156,b_1,blue,red,X,no_color_change,no_figure_change,not_first,no_update,correct,9,1017,3023,3025,0,2.43522377978017,8.72737782119125,1675,-2.9796977287086,2200,0.275117955703323,-0.128373443499996,1,125
208827162,157,b_1,blue,red,X,no_color_change,no_figure_change,not_first,no_update,correct,22,1029,3033,2875,0,0.675906106764937,3.90419016380658,625,-4.31451901183108,2375,-1.02690535355659,-1.01997265918658,0,NaN
208827162,159,b_1,red,red,Y,no_color_change,no_figure_change,not_first,update,correct,27,1034,3040,2050,0,4.89482849248223,10.3909185202259,1825,-1.5410856286735,75,0.301947677768808,5.26080442549268,0,NaN
208827162,160,b_1,red,red,Y,no_color_change,no_figure_change,not_first,update,correct,6,1014,3019,2425,0,-2.08964242379381,4.46961186439202,1900,-7.15812803162909,400,-1.67419947575132,-4.96947688341999,0,NaN
208827162,161,b_1,red,red,Y,no_color_change,no_figure_change,not_first,update,correct,242,1250,3255,2550,0,6.09214819744588,16.5477882148855,325,-3.64340155387823,1800,7.00029527377416,1.60508978168195,1,125
208827162,163,b_1,blue,red,X,no_color_change,figure_change,not_first,no_update,correct,15,1023,0,1250,0,4.88403928056743,8.48286173048261,1175,2.14818688419602,50,2.14818688419602,2.96438271590718,1,200
208827162,165,b_1,red,red,Y,no_color_change,figure_change,not_first,update,correct,31,1038,3043,2850,0,3.31688135106837,9.94502532656139,1775,-3.78363133078741,100,-1.94469779851111,0.261794990185535,0,NaN
208827162,167,b_2,red,red,Y,no_color_change,no_figure_change,not_first,update,correct,21,1029,3035,2525,0,9.09956507912678,14.3314438469008,1100,0.772179269565385,2375,3.64248753592729,1.72499376493691,1,125
208827162,170,b_2,red,red,Y,no_color_change,figure_change,not_first,update,correct,9,1017,3022,2900,0,2.70376186792401,5.54326168198554,2425,0.387945678422881,1525,2.25100314947616,5.54326168198554,0,NaN
208827162,175,b_3,red,red,Y,no_color_change,no_figure_change,not_first,update,correct,14,1021,3026,2275,0,5.30753067253647,15.5428893551721,1475,-2.43202977849559,300,0.735738221253868,7.96091572453102,0,NaN
208827162,179,b_3,blue,red,X,no_color_change,figure_change,not_first,no_update,correct,202,1211,3217,2275,0,-3.29429091652017,2.27968200299497,350,-8.29365106092548,1950,-3.09824814273495,-2.17506000049393,0,NaN
209049931,3,b_0,blue,red,X,no_color_change,no_figure_change,not_first,no_update,correct,9,1015,3021,2425,0,0.700887543099552,5.61695579182988,875,-6.2465025181869,1400,0,1.48934433874277,1,200
209049931,6,b_0,blue,red,X,no_color_change,no_figure_change,not_first,no_update,correct,17,1022,3028,3050,0,0.402081716935957,3.51718351873718,575,-3.07780747001429,325,1.42874899011871,2.66732956310982,1,175
209049931,9,b_0,blue,red,Y,no_color_change,figure_change,not_first,no_update,correct,3,1011,3016,2125,0,1.92312227331682,7.25708860052501,600,-6.07239712298077,1450,-3.06319388850619,4.18365510521971,1,125
209049931,11,b_1,red,red,X,no_color_change,no_figure_change,not_first,update,correct,12,1018,3023,3375,0,0.345446632575345,6.22596252603236,275,-4.83957109403886,1825,0,-0.0407669238037727,0,NaN
209049931,12,b_1,red,red,X,no_color_change,no_figure_change,not_first,update,correct,22,1030,3036,2825,0,-2.22404450060902,5.8404746624385,1650,-12.4296877949337,2125,-2.65865076069312,-7.98979450589553,0,NaN
209049931,14,b_1,blue,red,Y,no_color_change,figure_change,not_first,no_update,correct,21,1029,3034,2500,0,-4.38026455365376,1.94390286863091,1775,-12.3743493498053,400,-3.51396658224158,-2.56676566874997,1,225
209049931,15,b_1,blue,red,X,no_color_change,figure_change,not_first,no_update,correct,10,1016,3021,2225,0,-4.24409570467724,5.9377894509789,1350,-14.5692969433977,275,1.97968609239592,-6.2851306256582,0,NaN
209049931,19,b_1,red,red,Y,no_color_change,figure_change,not_first,update,correct,10,1020,3025,1975,0,0.361956096341582,9.89021160960161,1175,-15.2728510930904,1600,0.963995623010277,-7.95990624514448,0,NaN
209049931,20,b_1,red,red,X,no_color_change,figure_change,not_first,update,correct,17,1024,3029,1775,0,6.65265747678815,16.3719574160902,950,-6.09182593581579,1500,4.31165590855252,8.24134620101904,0,NaN
209049931,24,b_2,red,red,X,no_color_change,figure_change,not_first,update,correct,21,1028,3034,2525,0,-3.14564681958208,1.82653003755621,1600,-9.87903166044683,1500,0.319539010140474,-1.1418035872552,1,150
209049931,26,b_2,blue,red,Y,no_color_change,figure_change,not_first,no_update,correct,19,1026,3031,1975,0,1.89449472591303,5.65251442179122,1250,-5.44908120773746,1975,-1.12127039107568,-3.71209902326588,1,225
209049931,27,b_2,blue,red,X,no_color_change,figure_change,not_first,no_update,correct,6,1013,3018,1725,0,4.87351728055445,11.198678560491,575,-4.72929386390737,75,-1.25139278942328,3.8656015221315,0,NaN
209049931,28,b_2,blue,red,Y,no_color_change,figure_change,not_first,no_update,correct,22,1029,3036,1100,0,-1.26926640264133,7.28962136278993,675,-17.6853599523695,1000,1.37032720639465,-15.9894731508342,0,NaN
209049931,29,b_2,blue,red,Y,no_color_change,no_figure_change,not_first,no_update,correct,3,1010,3016,1925,0,NaN,NaN,25,NaN,25,NaN,NaN,0,NaN
209049931,30,b_2,blue,red,X,no_color_change,figure_change,not_first,no_update,correct,16,1022,3027,1200,0,2.3062197106015,13.3609159686571,950,-7.05620102674953,1100,2.3773980005404,0.256349635233718,0,NaN
209049931,31,b_2,blue,red,Y,no_color_change,figure_change,not_first,no_update,correct,22,1030,3036,925,0,4.94835733247775,15.1941981378878,450,-2.77930817021659,525,1.50452014400705,1.87701188855047,0,NaN
209049931,34,b_2,blue,red,X,no_color_change,no_figure_change,not_first,no_update,correct,411,1419,3425,900,0,5.60909864772488,11.955723516768,375,-2.69669401811433,50,-2.69669401811433,7.45195612590831,0,NaN
209049931,36,b_2,red,red,X,no_color_change,figure_change,not_first,update,correct,123,1129,0,350,0,3.81844325652895,12.0924833465056,175,-4.11856441232923,325,-2.09191882127131,1.06377723834255,0,NaN
209049931,38,b_2,blue,red,Y,no_color_change,no_figure_change,not_first,no_update,correct,99,1105,3111,1000,0,-4.44119607150527,4.06734504845662,75,-20.6250756879007,675,2.86124812212181,-3.64643849560274,0,NaN
209049931,39,b_2,blue,red,Y,no_color_change,no_figure_change,not_first,no_update,correct,21,1029,3033,1300,0,8.36229903356876,15.8867168091559,650,2.02134767933936,1125,4.0317302585365,8.91633971250879,0,NaN
209049931,42,b_3,blue,red,Y,no_color_change,figure_change,not_first,no_update,correct,675,1683,3687,775,0,-6.17190370633187,3.9268048119727,75,-11.0710428432603,675,3.21124683914638,-10.6619684546165,0,NaN
209049931,43,b_3,blue,red,Y,no_color_change,no_figure_change,not_first,no_update,correct,9,1016,3021,3025,0,-2.1048592938684,2.10436718015373,150,-5.89527624492096,2075,-1.19538868104661,0.720338861203217,0,NaN
209049931,50,b_0,blue,blue,X,no_color_change,no_figure_change,not_first,update,correct,6,1012,3018,2050,0,-9.53000266190218,2.90153267301456,600,-20.0991997763142,425,-3.63367808092197,-14.9677995824127,0,NaN
209049931,51,b_0,blue,blue,X,no_color_change,no_figure_change,not_first,update,correct,16,1022,3028,2350,0,6.20756946992733,16.1795825591003,2350,-5.00970914402653,225,-0.936749371607462,16.1795825591003,0,NaN
209049931,52,b_0,blue,blue,X,no_color_change,no_figure_change,not_first,update,correct,229,1235,3241,2275,0,-10.110875895484,1.80557270320973,150,-19.9703086276624,1575,-6.05029465525185,-7.7709488290578,0,NaN
209049931,53,b_0,blue,blue,Y,no_color_change,figure_change,not_first,update,correct,15,1023,3028,3175,0,5.04058404684999,12.3771383400242,2350,-3.11135210706318,150,-0.655915488817101,11.8143184260641,0,NaN
209049931,55,b_1,blue,blue,Y,no_color_change,figure_change,not_first,update,correct,5,1012,3018,3325,0,3.88938332027883,9.77924582727668,1150,-4.22673823407973,2200,0.252540963671436,1.00337663953665,0,NaN
209049931,57,b_1,red,blue,Y,no_color_change,no_figure_change,not_first,no_update,correct,2,1009,3014,2650,0,-2.39290859980006,3.31591850850056,1825,-9.89063242986208,2375,-1.599446677906,-8.86488689627062,0,NaN
209049931,59,b_1,blue,blue,X,no_color_change,figure_change,not_first,update,correct,22,1030,3034,2875,0,-2.97079348605294,3.56971238457277,2075,-16.4443056920124,2175,-1.29100976062145,-8.41696738195586,1,125
209049931,63,b_2,red,blue,Y,no_color_change,figure_change,not_first,no_update,correct,16,1023,3030,2950,0,7.31405920280675,14.9690653298289,1775,-1.09429915804927,150,1.53844592606123,6.56241226156287,0,NaN
209049931,64,b_2,red,blue,Y,no_color_change,no_figure_change,not_first,no_update,correct,3,1011,3016,2650,0,1.78050972771246,11.6310370353754,925,-4.94146827622231,1325,-1.00944390856681,2.05798373994162,0,NaN
209049931,67,b_3,red,blue,Y,no_color_change,no_figure_change,not_first,no_update,correct,31,1043,3048,3550,0,5.29178289814823,10.1061082607338,1550,0.515232767072106,100,1.90258822510661,2.64358324905906,0,NaN
209049931,69,b_3,blue,blue,X,no_color_change,no_figure_change,not_first,update,correct,15,1022,3028,3050,0,1.46163289275534,4.91411855166473,1225,-2.13330558301681,375,0.562232975469882,2.14342288591729,0,NaN
209049931,71,b_0,red,red,Y,no_color_change,no_figure_change,not_first,update,correct,25,1031,3037,2975,0,-1.1763355160515,5.03425556106237,1425,-7.56945861636687,2250,0.883064633684143,-4.97244978280517,0,NaN
209049931,72,b_0,red,red,Y,no_color_change,no_figure_change,not_first,update,correct,11,1017,0,1150,0,3.6150250653614,9.4623448763024,925,-1.13690485746547,450,-0.030235408070979,0.83107236697758,0,NaN
209049931,74,b_0,blue,red,X,no_color_change,no_figure_change,not_first,no_update,correct,23,1030,3035,3000,0,4.7091750642734,11.8583282049105,1600,-3.653660178075,2425,-0.162189528316489,-2.29126814021663,0,NaN
209049931,77,b_1,blue,red,Y,no_color_change,figure_change,not_first,no_update,correct,11,1019,3024,3125,0,-3.56809684559652,1.31222145234001,150,-10.9006766409184,2150,0.0265181649429849,-6.54998674091753,0,NaN
209049931,78,b_1,blue,red,X,no_color_change,figure_change,not_first,no_update,correct,19,1027,3033,2525,0,1.31747605359306,6.74104786554152,1325,-9.78995631243919,2400,0.230838203404701,-5.44393429696095,0,NaN
209049931,79,b_1,blue,red,X,no_color_change,no_figure_change,not_first,no_update,correct,8,1015,3020,2200,0,6.95286492700362,13.642013010994,875,-2.52052498508566,1550,6.77324507826482,7.76469418482429,0,NaN
209049931,83,b_2,red,red,Y,no_color_change,no_figure_change,not_first,update,correct,491,1499,3504,800,0,3.22569624093031,14.904775983345,150,-4.73255971519026,550,8.78481589612821,6.64689505648151,0,NaN
209049931,86,b_2,red,red,X,no_color_change,figure_change,not_first,update,correct,135,1142,3148,2850,0,10.2453631510894,17.8633516774506,1700,-0.210976536415757,1475,5.38321167883211,14.4635497018122,0,NaN
209049931,90,b_3,red,red,X,no_color_change,figure_change,not_first,update,correct,22,1030,3035,3150,0,0.419761982705495,6.24131507248312,1875,-5.59536884773388,2250,0.247577322402719,-3.03160858510773,0,NaN
209049931,92,b_3,blue,red,Y,no_color_change,figure_change,not_first,no_update,correct,22,1029,3034,2850,0,-1.02130931753226,4.87752653670425,300,-9.29406541364511,2100,0.191448427005568,-3.70962815551407,1,275
209049931,94,b_3,red,red,Y,no_color_change,no_figure_change,not_first,update,correct,13,1020,3024,2775,0,-2.40047806624752,4.42246660270131,2000,-10.7441139567496,2275,-2.14953133072551,-6.59498856004133,1,200
209049931,96,b_0,blue,blue,Y,no_color_change,no_figure_change,not_first,update,correct,7,1014,3020,3300,0,-1.42204987673173,2.50650156924564,2325,-5.09311048233204,1525,-1.70771691209077,1.64077006045244,0,NaN
209049931,97,b_0,blue,blue,X,no_color_change,figure_change,not_first,update,correct,27,1037,3042,3450,0,-2.67285064458044,5.63912008671215,2450,-8.77620962606798,1100,-0.603362643022706,5.63912008671215,0,NaN
209049931,98,b_0,blue,blue,Y,no_color_change,figure_change,not_first,update,correct,8,1015,3021,3025,0,-2.47771617124667,3.32902239564439,2250,-6.80205041858559,650,0.745782989058341,1.43839466957633,0,NaN
209049931,104,b_1,red,blue,X,no_color_change,figure_change,not_first,no_update,correct,6,1014,3019,2225,0,3.27576903295254,10.2380086376321,1075,-8.9934071576811,1750,1.00925198595239,2.64630638836334,1,250
209049931,105,b_1,red,blue,Y,no_color_change,figure_change,not_first,no_update,correct,21,1029,3035,1975,0,0.156880277461032,7.21973188669759,550,-5.850866867566,1025,3.27871320065147,2.74826671643993,0,NaN
209049931,107,b_2,blue,blue,Y,no_color_change,figure_change,not_first,update,correct,16,1025,3031,2625,0,0.386449619347877,7.34016351893706,875,-11.5927293111571,2000,0.541485028654577,-2.61111475546703,0,NaN
209049931,109,b_2,red,blue,X,no_color_change,no_figure_change,not_first,no_update,correct,16,1024,3030,1775,0,1.68736323083829,6.08736743912019,1675,-1.5140170856245,50,-1.5140170856245,5.05664522780833,0,NaN
209049931,112,b_3,blue,blue,X,no_color_change,figure_change,not_first,update,correct,21,1028,3033,2775,0,0.849456335785336,7.34675952067256,975,-8.75462701549658,1650,2.4600037643516,-5.46113306982872,0,NaN
209049931,114,b_3,red,blue,Y,no_color_change,figure_change,not_first,no_update,correct,21,1029,3035,2075,0,4.82817977850442,12.0795187839035,725,-5.54921740211698,1500,3.48446461600633,1.44427001569859,0,NaN
209049931,117,b_0,red,blue,X,no_color_change,no_figure_change,not_first,no_update,correct,6,1013,3019,2500,0,-0.314526961008795,7.56831727705514,1075,-10.9919906036411,2125,1.48005148005149,-3.313403556122,0,NaN
209049931,118,b_0,red,blue,X,no_color_change,no_figure_change,not_first,no_update,correct,10,1017,3021,2675,0,0.130846703586782,7.82574120389481,1450,-7.98630502877401,2200,-2.27460359857223,-1.99687978049195,0,NaN
209049931,119,b_0,red,blue,X,no_color_change,no_figure_change,not_first,no_update,correct,6,1012,3018,2775,0,-1.60489863117609,4.0003514129223,250,-9.89318258930736,1900,-3.04729533226698,0.608913770539473,0,NaN
209049931,121,b_0,blue,blue,X,no_color_change,figure_change,not_first,update,correct,21,1029,3034,2375,0,-5.2769058983728,-0.0435996073069447,1025,-9.73190690445755,1375,-0.436292669037456,-5.49829605616341,0,NaN
209049931,123,b_0,red,blue,Y,no_color_change,no_figure_change,not_first,no_update,correct,21,1028,3032,1775,0,-1.81606162937452,4.85413557930157,1800,-10.3769207401547,1475,-0.903995540110628,4.85413557930157,1,150
209049931,128,b_1,red,blue,X,no_color_change,figure_change,not_first,no_update,correct,4,1010,3016,2550,0,-1.47779847696729,8.03103564601372,625,-13.1281425197989,2075,0.970586817882449,-5.02385503847327,0,NaN
209049931,130,b_1,blue,blue,X,no_color_change,no_figure_change,not_first,update,correct,21,1028,3033,2075,0,1.10341023799017,6.64418201137907,1350,-6.95186086862954,1325,-0.596527095915107,3.54217386041131,1,175
209049931,138,b_3,blue,blue,Y,no_color_change,no_figure_change,not_first,update,correct,14,1021,3027,2900,0,-1.47722031281856,2.59416358704557,450,-8.29191773922436,2450,-0.612890110623624,-8.29191773922436,0,NaN
209049931,141,b_3,blue,blue,Y,no_color_change,no_figure_change,not_first,update,correct,41,1047,3054,1825,0,-4.77185953968595,6.9060550656055,1525,-14.899709614971,1275,1.19078027532802,-11.3492148849215,0,NaN
209049931,143,b_3,red,blue,X,no_color_change,figure_change,not_first,no_update,correct,22,1031,3035,2350,0,-4.37903654298546,2.91500222642411,1950,-14.1668333795827,1400,0.194247436385581,-3.15732751666592,1,125
209049931,144,b_3,red,blue,X,no_color_change,no_figure_change,not_first,no_update,correct,21,1029,3034,2050,0,3.58779333855713,13.507683826063,1900,-5.88450141272138,1525,4.24953483564192,6.37171800702914,0,NaN
209049931,145,b_3,red,blue,X,no_color_change,no_figure_change,not_first,no_update,correct,194,1201,3206,1750,0,-1.98302610620677,6.01660237741756,300,-10.00398805594,1625,-5.93650612786578,-7.90439389927981,1,125
209049931,147,b_0,blue,blue,X,no_color_change,no_figure_change,not_first,update,correct,31,1038,0,1225,0,-1.80657966828989,5.14862436056961,875,-8.54355807487288,1150,0.0012289352811905,-8.22833617524617,0,NaN
209049931,150,b_0,blue,blue,Y,no_color_change,figure_change,not_first,update,correct,22,1029,3034,1750,0,NaN,NaN,25,NaN,25,NaN,NaN,0,NaN
209049931,152,b_0,red,blue,Y,no_color_change,figure_change,not_first,no_update,correct,21,1029,3034,1250,0,13.7413222959508,27.5058581345947,1275,-1.37018300739476,175,15.4530655746082,27.5058581345947,0,NaN
209049931,154,b_1,blue,blue,Y,no_color_change,figure_change,not_first,update,correct,9,1017,3023,3000,0,-1.71604473121781,4.13305416414691,2000,-12.1872183110645,2150,-2.18619139443868,-9.55631496673931,0,NaN
209049931,155,b_1,blue,blue,Y,no_color_change,no_figure_change,not_first,update,correct,26,1033,3038,2750,0,0.367122868679771,8.4821580908242,1475,-8.46974956492606,1800,1.31189140058135,-2.05578252817511,0,NaN
209049931,158,b_1,blue,blue,Y,no_color_change,figure_change,not_first,update,correct,4,1011,3017,1700,0,-10.7404536402865,-2.95914425073647,1325,-21.2467402327715,1375,-4.97808712029749,-11.1185227217849,0,NaN
209049931,161,b_2,red,blue,X,no_color_change,no_figure_change,not_first,no_update,correct,8,1015,3021,2875,0,-3.16515873755701,0.714711137581901,1950,-10.3491736904483,2325,-2.54570722110924,-5.92216085813465,1,200
209049931,164,b_3,blue,blue,Y,no_color_change,no_figure_change,not_first,update,correct,17,1025,3031,2800,0,-0.921743584737382,5.04460128784133,1025,-12.5220276676605,2425,-1.60388718194474,-10.1926302475895,0,NaN
209049931,166,b_3,red,blue,Y,no_color_change,figure_change,not_first,no_update,correct,268,1274,3279,775,0,13.7644048528814,22.0527794569974,750,-4.80763747105722,50,-4.80763747105722,21.2957999231995,0,NaN
209049931,167,b_3,red,blue,X,no_color_change,figure_change,not_first,no_update,correct,23,1030,0,1625,0,-2.36359154951636,2.76430862526938,1300,-9.42308174209393,1200,-4.68319300355836,-2.18356888688417,1,200
209049931,169,b_3,blue,blue,X,no_color_change,figure_change,not_first,update,correct,22,1030,3036,950,0,0.660137463800053,15.6278677715163,800,-10.9588808298608,300,-1.39250487733585,3.77203298234642,0,NaN
209049931,170,b_3,blue,blue,Y,no_color_change,figure_change,not_first,update,correct,192,1203,3208,750,0,-1.4795263788418,5.09737837693824,75,-12.4996669686151,700,0.529519901955567,3.63104118932168,0,NaN
209049931,171,b_3,blue,blue,Y,no_color_change,no_figure_change,not_first,update,correct,24,1032,3037,1100,0,-6.45913848073831,0.585536238787014,625,-19.2884020004763,775,-3.21346352306105,-14.1922680003175,0,NaN
209049931,172,b_3,blue,blue,Y,no_color_change,no_figure_change,not_first,update,correct,33,1040,3046,1250,0,3.22566198267016,15.2177630828868,125,-8.25483126211378,675,2.0069689887128,1.0196955877323,0,NaN
209049931,187,b_1,red,red,Y,no_color_change,no_figure_change,not_first,update,correct,5,1012,3018,3125,0,1.33470591521419,4.08064003192676,1900,-1.66555463405813,850,-0.726146900546865,-0.62138719312577,0,NaN
209049931,188,b_1,red,red,X,no_color_change,figure_change,not_first,update,correct,15,1023,3028,2975,0,0.199350461905491,4.73445238571541,1125,-4.43529076569614,2000,-1.56370293584544,-1.81648995823255,0,NaN
209049931,191,b_1,red,red,Y,no_color_change,no_figure_change,not_first,update,correct,2,1010,3015,2700,0,-6.69601967996227,2.56801146449487,900,-15.64602782381,1950,-0.567327369122509,-2.31737307377023,1,150
209049931,196,b_2,blue,red,Y,no_color_change,figure_change,not_first,no_update,correct,7,1015,3019,3450,0,-0.0428054368138778,3.62186280277328,1125,-4.1021632323037,625,0.95039313181131,-2.05766291398378,0,NaN
209049931,199,b_3,red,red,X,no_color_change,no_figure_change,not_first,update,correct,143,1151,3157,2800,0,4.33427727123056,9.55627276556731,1075,-1.83642242981391,2375,1.62858983571623,-0.781772678841335,0,NaN
209049931,200,b_3,red,red,X,no_color_change,no_figure_change,not_first,update,correct,8,1014,0,500,0,4.4540534493213,6.73245176216369,350,1.35993705299997,500,2.43244354147338,1.35993705299997,0,NaN
209049931,201,b_3,red,red,Y,no_color_change,figure_change,not_first,update,correct,1919,2927,4932,2875,0,-5.04963449314262,-0.897349492789829,1175,-10.9497554003649,2050,-4.52305976132654,-6.23874318781301,1,375
209049931,202,b_3,red,red,Y,no_color_change,no_figure_change,not_first,update,correct,9,1016,3021,2525,0,-0.975620752867779,6.44791063910051,150,-8.87758592578621,2150,2.53069862755316,-0.0962279291174184,1,275
209049931,206,b_0,red,red,Y,no_color_change,figure_change,not_first,update,correct,12,1019,3025,3375,0,-4.7381097943996,0.0827199173882178,1200,-8.28740035088383,1625,-1.16726994536701,-4.40415978460382,0,NaN
209049931,209,b_0,red,red,Y,no_color_change,figure_change,not_first,update,correct,22,1028,3033,3400,0,-3.3173405873322,-0.562126771350052,675,-7.21504477492404,1850,-1.14552726289813,-2.28930257236819,2,162.5
209049931,210,b_0,red,red,Y,no_color_change,no_figure_change,not_first,update,correct,10,1018,3023,3300,0,2.71505732758865,8.14365791721765,1350,-9.30131183223526,2400,1.34518390226206,-5.98603910921793,0,NaN
209049931,213,b_1,blue,red,Y,no_color_change,figure_change,not_first,no_update,correct,13,1021,3025,3525,0,1.76174912380291,5.5768717517513,1575,-2.37905968311729,200,1.17403295098104,2.38393833385467,0,NaN
209049931,214,b_1,blue,red,X,no_color_change,figure_change,not_first,no_update,correct,21,1027,3032,3525,0,1.22608994154548,4.20704610700061,2450,-1.92248271057703,225,0.0112360181798721,4.20704610700061,0,NaN
209049931,217,b_2,red,red,X,no_color_change,no_figure_change,not_first,update,correct,23,1029,3034,3525,0,0.513082910846634,4.13633140374222,1125,-3.5534988317922,1925,-0.480843934783778,-1.00971575964584,0,NaN
209049931,220,b_2,red,red,X,no_color_change,figure_change,not_first,update,correct,17,1029,3034,3325,0,6.30539704706381,10.4132481400837,1300,-0.398950970124332,75,-0.368130723505288,7.57835619643912,2,137.5
209049931,224,b_3,red,red,X,no_color_change,no_figure_change,not_first,update,correct,26,1032,3038,2675,0,1.48500925453895,7.6678468874465,1400,-6.04356440252414,2150,-0.723261016929428,-1.90357877464571,0,NaN
209049931,225,b_3,red,red,Y,no_color_change,figure_change,not_first,update,correct,22,1030,3035,3525,0,7.00487704305004,12.0615020214808,1500,-0.763962219020001,100,0.160726682962974,5.71877789380954,0,NaN
209049931,226,b_3,red,red,Y,no_color_change,no_figure_change,not_first,update,correct,20,1033,3037,3525,0,-2.08902372096717,1.17465294344852,1225,-5.90251743802968,1750,-1.2075977552087,-1.73017063140436,0,NaN
209154863,2,b_0,blue,blue,Y,no_color_change,figure_change,not_first,update,correct,22,1031,3037,3325,0,0.473721957391737,6.75188409231593,1100,-9.41463922875302,2725,0,-3.49341052885332,0,NaN
209154863,3,b_0,blue,blue,Y,no_color_change,no_figure_change,not_first,update,correct,11,1018,3023,3525,0,8.00936916659676,14.5840849028902,2325,-0.233021519359028,300,-0.165275389068327,8.90704308066614,2,162.5
209154863,4,b_0,blue,blue,Y,no_color_change,no_figure_change,not_first,update,correct,21,1028,3033,3300,0,-8.49390180586586,1.02299379123383,75,-20.9866685650189,2350,0.0910054660999862,-4.49447714185118,0,NaN
209154863,5,b_0,blue,blue,X,no_color_change,figure_change,not_first,update,correct,8,1015,3020,3525,0,11.9255583384775,20.0448652526702,3175,-0.0301122641795217,50,-0.0301122641795217,18.0024857775128,0,NaN
209154863,6,b_0,blue,blue,X,no_color_change,no_figure_change,not_first,update,correct,19,1026,3031,3525,0,-1.60746784218185,3.3142955735448,2925,-7.33035912351187,1625,1.36339468374666,0.995433050349121,0,NaN
209154863,8,b_0,red,blue,Y,no_color_change,no_figure_change,not_first,no_update,correct,16,1022,3028,3525,0,1.66874227126301,5.08758114465475,1300,-1.53374107969823,1825,0,0.828277305609859,1,150
209154863,10,b_1,blue,blue,Y,no_color_change,figure_change,not_first,update,correct,23,1031,3036,3225,0,-1.11063747891089,3.40126467600685,675,-9.14318658089077,2125,-0.103223917201234,-7.92042241276755,0,NaN
209154863,11,b_1,blue,blue,Y,no_color_change,no_figure_change,not_first,update,correct,13,1020,3026,3525,0,1.17153293983759,3.02078438821519,1300,-1.01092704969658,2825,-0.00939746268507236,2.33716896437961,0,NaN
209154863,14,b_1,blue,blue,Y,no_color_change,figure_change,not_first,update,correct,21,1030,3034,3525,0,-2.95292971769725,1.34496282440229,75,-6.96963861860823,3350,0.830359809484889,-5.88875615008567,0,NaN
209154863,15,b_1,blue,blue,X,no_color_change,figure_change,not_first,update,correct,9,1016,3021,3525,0,6.19192240485492,11.3172573114618,2850,-0.764488181820099,100,-0.0319153208335194,7.40921570741048,0,NaN
209154863,16,b_1,blue,blue,X,no_color_change,no_figure_change,not_first,update,correct,21,1028,3034,3525,0,-1.1046595108915,2.5783570791022,1025,-4.74961556197221,2075,-0.541874553468062,0.511792401485906,0,NaN
209154863,20,b_1,red,blue,X,no_color_change,figure_change,not_first,no_update,correct,15,1022,3028,3350,0,3.37559687193137,9.17219534355957,1525,-9.24923742989274,3100,2.21516933557481,-7.8578740989949,1,200
209154863,22,b_1,blue,blue,X,no_color_change,no_figure_change,not_first,update,correct,14,1022,3028,3525,0,-3.01181525071332,0.300783221527269,3375,-6.18219861909442,2000,-1.08747846804893,0.300783221527269,0,NaN
209154863,26,b_2,blue,blue,X,no_color_change,no_figure_change,not_first,update,correct,12,1020,3024,3525,0,-5.91506026818815,0.903332223366604,50,-16.5252104419475,3375,0.903332223366604,-16.5252104419475,0,NaN
209154863,27,b_2,blue,blue,Y,no_color_change,figure_change,not_first,update,correct,23,1031,3036,3525,0,6.70463912015378,19.2196012278421,3375,-7.59957781403538,725,-1.25203949005835,19.2196012278421,0,NaN
209154863,29,b_2,red,blue,Y,no_color_change,figure_change,not_first,no_update,correct,21,1029,3034,3425,0,4.5028303627197,15.0402143014772,1400,-8.5434360340243,3000,0.654178856956818,-6.13407389118431,0,NaN
209154863,32,b_3,blue,blue,Y,no_color_change,no_figure_change,not_first,update,correct,15,1023,3028,3525,0,0.881901134602164,7.49263807273339,600,-4.71843343476642,825,0.446154514528359,5.7457977042498,0,NaN
209154863,33,b_3,blue,blue,Y,no_color_change,no_figure_change,not_first,update,correct,4,1011,3016,3175,0,0.475547725543741,8.00052407138857,2400,-6.23950062457823,750,-2.11315634557124,-0.163862047180785,0,NaN
209154863,36,b_3,blue,blue,X,no_color_change,no_figure_change,not_first,update,correct,13,1021,3026,3475,0,-3.13414402340991,7.52850537223085,150,-14.2852349218493,3250,-0.34293690900428,-13.5743622782822,2,162.5
209154863,40,b_3,red,blue,X,no_color_change,no_figure_change,not_first,no_update,correct,11,1018,3022,3525,0,-8.50501815675003,0.377945371083413,50,-17.2022147555724,2025,0.377945371083413,-3.35203341923327,0,NaN
209154863,42,b_0,blue,blue,X,no_color_change,no_figure_change,not_first,update,correct,13,1019,3024,3350,0,-2.57643037927723,2.00100130491343,2850,-6.12585477861711,950,-1.31898799841561,-0.897354182458656,0,NaN
209154863,43,b_0,blue,blue,X,no_color_change,no_figure_change,not_first,update,correct,21,1028,3034,3525,0,-3.72984135357953,1.11184832217464,1600,-10.7509499969841,450,-0.490580453183753,-1.56603735649516,0,NaN
209154863,47,b_0,red,blue,Y,no_color_change,figure_change,not_first,no_update,correct,4,1012,3018,3225,0,-4.75086292437538,7.64057569960573,1375,-20.7149805354519,2550,-1.17819282611477,-15.9680005503967,0,NaN
209154863,54,b_2,red,blue,X,no_color_change,no_figure_change,not_first,no_update,correct,633,1639,3644,2400,0,16.5034522519003,24.1426438845293,425,2.48961086118901,1975,17.1133323919227,11.7535958524137,0,NaN
209154863,55,b_2,red,blue,X,no_color_change,no_figure_change,not_first,no_update,correct,23,1030,3035,3250,0,10.2665428726845,20.2707927664372,1475,-3.0861897086637,50,-3.0861897086637,8.92852151714757,0,NaN
209154863,56,b_2,red,blue,X,no_color_change,no_figure_change,not_first,no_update,correct,13,1020,3024,3525,0,1.7468834146771,8.07795768678534,725,-9.04777968066151,3375,0.959875101631297,-9.04777968066151,0,NaN
209154863,59,b_3,blue,blue,Y,no_color_change,no_figure_change,not_first,update,correct,13,1019,3026,3525,0,-2.20462715651721,3.05948410184068,325,-7.76357789281147,2575,0.506892058292578,-6.08549419983184,0,NaN
209154863,60,b_3,blue,blue,X,no_color_change,figure_change,not_first,update,correct,24,1032,3037,3525,0,3.33131208157957,9.53196261522231,2550,-2.74115086388628,550,1.02557736881192,4.44538137053263,0,NaN
209154863,63,b_3,blue,blue,Y,no_color_change,figure_change,not_first,update,correct,11,1018,3023,3525,0,0.909336255382866,6.62228004387643,3325,-6.76598386095593,550,-1.47296412506483,5.62039233693018,0,NaN
209154863,66,b_3,blue,blue,X,no_color_change,no_figure_change,not_first,update,correct,21,1028,3032,3525,0,7.6280994229158,17.9261509594121,3250,-2.41740567828981,450,2.41048093461701,16.1080706770612,0,NaN
209154863,69,b_0,red,blue,X,no_color_change,figure_change,not_first,no_update,correct,5,1013,3019,3500,0,-2.11488979707012,1.1222511802187,1500,-5.11746538179727,400,-0.318496739906664,-2.1498993683859,1,125
209154863,70,b_0,red,blue,X,no_color_change,no_figure_change,not_first,no_update,correct,17,1024,3030,3525,0,-7.16092573704516,1.30218703096763,750,-17.5869911477318,2300,-2.06852850185314,-11.8452690905749,0,NaN
209154863,71,b_0,red,blue,X,no_color_change,no_figure_change,not_first,no_update,correct,6,1013,3019,3500,0,2.21591489458722,8.68785015904979,1450,-3.68591899527408,2675,-0.467602015353833,2.99699259214255,1,150
209154863,73,b_1,blue,blue,Y,no_color_change,no_figure_change,not_first,update,correct,7,1014,3018,3500,0,-0.632941365406003,2.51870360296446,1375,-3.74444373199189,2100,0.034335616169173,0.852805695575469,0,NaN
209154863,74,b_1,blue,blue,X,no_color_change,figure_change,not_first,update,correct,15,1024,3029,3525,0,2.41076280803788,8.20485275433579,2575,-1.37608329631963,700,-0.0202456332441585,6.14558263007302,0,NaN
209154863,76,b_1,red,blue,X,no_color_change,no_figure_change,not_first,no_update,correct,14,1021,3027,3425,0,-1.6164750714781,5.76634883863481,3150,-9.98315391655588,625,-0.184102116434545,3.77018306640994,0,NaN
209154863,77,b_1,red,blue,Y,no_color_change,figure_change,not_first,no_update,correct,3,1010,3014,3500,0,0.243980380091329,5.28241312618312,2825,-5.07235802268677,350,-2.23990265939626,4.96219213670436,0,NaN
209154863,79,b_2,blue,blue,Y,no_color_change,no_figure_change,not_first,update,correct,180,1189,3195,3450,0,-3.16219405930809,1.4068037605314,2550,-10.3437957598523,1075,-3.60836994121517,-0.555803145094544,1,150
209154863,81,b_2,red,blue,X,no_color_change,figure_change,not_first,no_update,correct,10,1019,3023,3525,0,0.204341749255704,3.65764402703716,525,-3.3351579525722,3125,1.79448226941631,-2.39312139048285,0,NaN
209154863,83,b_2,blue,blue,Y,no_color_change,figure_change,not_first,update,correct,9,1017,3022,3075,0,-3.4146227005381,3.48009814612867,125,-11.0330334423846,2000,2.72673573246092,-0.806752090149033,0,NaN
209154863,84,b_2,blue,blue,Y,no_color_change,no_figure_change,not_first,update,correct,19,1025,3031,3375,0,3.06968244724896,7.81442461860296,2450,-3.05461702025171,2050,-2.01003296151279,4.59327970492909,1,175
209154863,85,b_2,blue,blue,Y,no_color_change,no_figure_change,not_first,update,correct,6,1014,3019,3500,0,NaN,NaN,25,NaN,25,NaN,NaN,0,NaN
209154863,86,b_2,blue,blue,Y,no_color_change,no_figure_change,not_first,update,correct,15,1021,3027,3450,0,-4.53093670711997,0.900864660699014,1775,-9.57711232120324,600,-0.750967556169073,-2.24824484887492,0,NaN
209154863,91,b_3,red,blue,Y,no_color_change,no_figure_change,not_first,no_update,correct,13,1020,3025,3525,0,-0.656373115662259,3.87716335099685,2825,-7.46251337656813,700,-5.80252962184603,0.311797595870772,0,NaN
209154863,94,b_3,red,blue,X,no_color_change,figure_change,not_first,no_update,correct,22,1029,3037,3425,0,-3.24591326222759,3.6490135038581,1400,-10.9982569547925,2375,-1.82693057537354,-4.23009882876636,0,NaN
209154863,95,b_3,red,blue,Y,no_color_change,figure_change,not_first,no_update,correct,10,1016,3021,3450,0,0.45987806165337,10.6217977185505,2000,-11.8581904389459,3100,-0.727783706394291,-7.59665670217208,0,NaN
209154863,98,b_0,blue,red,Y,no_color_change,no_figure_change,not_first,no_update,correct,14,1021,0,1975,0,9.93468010641791,16.1927540645249,1825,2.40783975367542,125,3.00546448087432,14.9078397536754,0,NaN
209154863,99,b_0,blue,red,Y,no_color_change,no_figure_change,not_first,no_update,correct,1576,2583,4588,675,0,-1.77266825986105,1.32363662801852,125,-4.26516355616772,675,-0.353629498880125,-2.34332557139135,0,NaN
209154863,101,b_1,red,red,Y,no_color_change,figure_change,not_first,update,correct,25,1033,3038,3475,0,-4.57464050535624,1.43177844882391,1275,-12.2306102987921,2600,-0.70585664335664,-5.80081849968214,0,NaN
209154863,102,b_1,red,red,Y,no_color_change,no_figure_change,not_first,update,correct,13,1020,3026,3525,0,3.85480138895318,7.15574617893471,2900,0.682201489473258,2250,0.687254833839717,4.55790606253935,0,NaN
209154863,103,b_1,red,red,X,no_color_change,figure_change,not_first,update,correct,21,1028,3033,3525,0,5.0994637265059,11.6516041201942,2400,-1.8524061802913,100,0.488986025455972,2.01089095919171,0,NaN
209154863,105,b_1,blue,red,X,no_color_change,figure_change,not_first,no_update,correct,20,1027,3031,3525,0,-0.0776824683322555,6.17622916972158,2175,-6.02622251212273,525,-0.417658985988709,2.56764204703467,0,NaN
209154863,107,b_1,red,red,Y,no_color_change,figure_change,not_first,update,correct,21,1027,3032,3525,0,0.465459846456209,6.62367215108902,1475,-4.35796604481916,2725,-0.335986409538492,-0.962867419595014,0,NaN
209154863,112,b_2,blue,red,X,no_color_change,no_figure_change,not_first,no_update,correct,13,1020,3026,3525,0,-2.56752653111328,1.0818514182311,625,-6.42606539648146,1650,0.143094848391314,-2.38853843271337,0,NaN
209154863,113,b_2,blue,red,X,no_color_change,no_figure_change,not_first,no_update,correct,21,1029,3035,3525,0,-1.43934610283755,3.21859606529088,2200,-6.19902284378544,700,-1.35337138958837,0.327858984519992,0,NaN
209154863,115,b_3,red,red,X,no_color_change,figure_change,not_first,update,correct,9,1017,3022,3525,0,3.78431912620164,8.73763013122374,2500,-2.07005133776326,300,0.0298142937075454,4.40577662150959,1,150
209154863,116,b_3,red,red,X,no_color_change,no_figure_change,not_first,update,correct,24,1034,3039,3175,0,-5.41960372721833,3.64859859241881,875,-20.0659977934353,2900,1.58940370973716,-16.4526484751204,0,NaN
209154863,117,b_3,red,red,Y,no_color_change,figure_change,not_first,update,correct,6,1015,3019,3500,0,9.36483688426657,17.5867608194876,1350,-0.748072112644209,150,-0.18631141092618,6.4377540877807,0,NaN
209154863,120,b_3,red,red,X,no_color_change,figure_change,not_first,update,correct,15,1022,3027,3525,0,1.54382742903689,5.43743327649783,1400,-3.36799498741395,350,-0.604959753038443,1.02631389355241,0,NaN
209154863,121,b_3,red,red,Y,no_color_change,figure_change,not_first,update,correct,3,1010,3015,3350,0,1.51081802949158,9.47693011986793,2750,-5.11150028180084,900,0.0114447853886759,4.73447018201527,0,NaN
209154863,123,b_0,red,red,Y,no_color_change,figure_change,not_first,update,correct,12,1019,3025,3175,0,0.245995878016755,5.43360753011558,1975,-4.3413587371775,2700,0.0272300164193098,-0.00548664509940977,0,NaN
209154863,124,b_0,red,red,X,no_color_change,figure_change,not_first,update,correct,22,1028,3034,2600,0,4.6688213436297,8.73533987918476,1350,0.308334789020194,50,0.308334789020194,1.62028103558241,0,NaN
209154863,127,b_0,red,red,Y,no_color_change,no_figure_change,not_first,update,correct,187,1196,3201,3375,0,-0.947840546885809,3.77602011418993,3375,-8.05761877324393,875,-1.48740244094076,3.77602011418993,1,125
209154863,129,b_0,blue,red,X,no_color_change,no_figure_change,not_first,no_update,correct,6,1013,3018,3500,0,9.64406506388163,18.3899083173354,2200,1.09452495903494,75,1.34009568032755,6.92803767467809,0,NaN
209154863,130,b_0,blue,red,X,no_color_change,no_figure_change,not_first,no_update,correct,16,1024,3029,3525,0,NaN,NaN,25,NaN,25,NaN,NaN,0,NaN
209154863,131,b_0,blue,red,X,no_color_change,no_figure_change,not_first,no_update,correct,4,1011,3016,3275,0,-0.775472723575659,4.53022601009539,1275,-6.97855733118298,3250,-0.0463336288587186,-5.52261214743004,1,275
209154863,137,b_1,red,red,Y,no_color_change,figure_change,not_first,update,correct,21,1028,3033,3525,0,4.11799155576923,8.55228389302469,1500,-0.634614088084788,325,-0.274897946312251,5.45185262512315,1,150
209154863,138,b_1,red,red,Y,no_color_change,no_figure_change,not_first,update,correct,12,1019,3024,3400,0,2.12843204832143,4.90696420515191,2750,-1.13755653121183,3275,3.87526271195766,1.13601602130305,0,NaN
209154863,139,b_1,red,red,Y,no_color_change,no_figure_change,not_first,update,correct,21,1029,3033,3250,0,3.01109106124662,7.94756871414781,2100,-2.81016281742005,150,0.494791141693042,7.1575604041653,0,NaN
209154863,142,b_2,blue,red,Y,no_color_change,figure_change,not_first,no_update,correct,6,1016,3021,3325,0,4.37814456841611,8.82369787298457,625,-2.09796790043653,2675,1.20833623126741,6.57701481423902,0,NaN
209154863,148,b_3,blue,red,Y,no_color_change,no_figure_change,not_first,no_update,correct,7,1015,3021,3525,0,-0.113501879560421,2.80110463742849,1300,-2.74152445818621,1950,1.78865969683096,0.492738534996562,1,300
209154863,149,b_3,blue,red,X,no_color_change,figure_change,not_first,no_update,correct,19,1025,3030,3525,0,1.13925274853429,5.54490175280144,1500,-6.00048309686092,775,1.45223117235005,3.16218401789558,0,NaN
209154863,150,b_3,blue,red,Y,no_color_change,figure_change,not_first,no_update,correct,5,1011,3017,3325,0,-3.9364709806342,0.339512065544938,50,-10.6531249221779,2375,0.339512065544938,-2.53368142312833,0,NaN
209154863,185,b_2,blue,red,X,no_color_change,figure_change,not_first,no_update,correct,2,1011,3015,3500,0,-0.459715897688845,2.87417417475991,3275,-4.15765337869074,400,-0.105526177709194,1.75064222724603,0,NaN
209154863,186,b_2,blue,red,Y,no_color_change,figure_change,not_first,no_update,correct,14,1021,3026,3525,0,2.48642513101161,9.07352010301452,2675,-5.96218199888388,600,-0.181024742020028,3.99378442280123,0,NaN
209154863,187,b_2,blue,red,X,no_color_change,figure_change,not_first,no_update,correct,21,1029,3036,3525,0,-9.83221186662886,0.230470151710776,100,-15.6673461158566,1775,0.230470151710776,-8.2950757813974,0,NaN
209154863,188,b_2,blue,red,X,no_color_change,no_figure_change,not_first,no_update,correct,12,1020,3026,3375,0,-2.67379533089176,9.68990177750082,2225,-10.9718389269711,875,-0.257574408736161,-6.02609375154555,0,NaN
211335542,6,b_1,blue,blue,X,no_color_change,figure_change,not_first,update,correct,14,1024,3029,3200,0,-2.10274069483056,5.85480515272231,1700,-8.44762539122473,2975,0,-4.21069686222977,0,NaN
211335542,7,b_1,blue,blue,X,no_color_change,no_figure_change,not_first,update,correct,18,1026,3031,3475,0,3.35784923457287,8.29689957252255,2675,-2.37166219013289,625,1.2035300666346,5.31644680310637,0,NaN
211335542,8,b_1,blue,blue,Y,no_color_change,figure_change,not_first,update,correct,9,1016,3022,3350,0,-1.12914209678988,6.5754911649198,875,-14.7851265482512,2750,1.14259527600986,-10.6986139343885,0,NaN
211335542,9,b_1,blue,blue,X,no_color_change,figure_change,not_first,update,correct,16,1022,3027,3425,0,2.5116813095387,12.606172316736,2800,-9.11289898511858,2725,2.21546926157482,5.59250310663866,1,275
211335542,10,b_1,blue,blue,Y,no_color_change,figure_change,not_first,update,correct,6,1013,3017,3325,0,0.203883713154264,13.103544105583,2625,-14.9331822663784,2250,-1.50390003928098,2.05917798555423,1,225
211335542,17,b_2,blue,blue,Y,no_color_change,no_figure_change,not_first,update,correct,14,1023,3027,3525,0,5.79509220918869,10.5953741391189,2850,-0.381568498324583,400,0.6942388414042,8.17951151484631,0,NaN
211335542,22,b_2,blue,blue,Y,no_color_change,no_figure_change,not_first,update,correct,21,1028,3033,3375,0,NaN,NaN,25,NaN,25,NaN,NaN,2,162.5
211335542,25,b_3,blue,blue,Y,no_color_change,no_figure_change,not_first,update,correct,10,1017,3023,3400,0,-6.06596503958609,4.61403166412809,2725,-14.6394004749366,2200,-0.218460688480633,-6.92941084041472,0,NaN
211335542,27,b_3,red,blue,X,no_color_change,no_figure_change,not_first,no_update,correct,9,1016,3020,3475,0,8.35435816730579,22.3342129297701,2750,-4.41008035366322,2650,0,6.71835163429415,1,350
211335542,28,b_3,red,blue,X,no_color_change,no_figure_change,not_first,no_update,correct,19,1026,3031,3375,0,3.47835960547031,14.7691058011237,3125,-12.4432410478576,2500,2.83544303797468,14.7691058011237,2,125
211335542,31,b_3,red,blue,X,no_color_change,no_figure_change,not_first,no_update,correct,5,1011,3017,3250,0,-8.60167311951747,1.16263374571054,2100,-18.9167441063632,450,-4.16590957466138,-8.8738105003037,1,275
211335542,35,b_0,red,blue,X,no_color_change,figure_change,not_first,no_update,correct,23,1032,3036,3325,0,6.03716925103382,14.9419611870729,1050,-1.69601995383982,125,-0.968630261442698,1.30805997438054,0,NaN
211335542,36,b_0,red,blue,Y,no_color_change,figure_change,not_first,no_update,correct,20,1027,3031,3400,0,1.13254863178782,8.22026229344876,2800,-6.49756054362656,600,2.38023417674228,2.50504357259285,1,125
211335542,38,b_0,blue,blue,X,no_color_change,no_figure_change,not_first,update,correct,10,1016,3020,3450,0,7.96537694216115,15.0237360653051,1500,-4.46169019187252,200,-4.32252295253075,0.482484767800614,2,162.5
211335542,39,b_0,blue,blue,Y,no_color_change,figure_change,not_first,update,correct,21,1027,3032,3475,0,-1.40758254834252,6.89247368980547,1450,-8.57074518975232,2975,-5.3664824067184,-5.05554374402041,0,NaN
211335542,41,b_0,red,blue,X,no_color_change,figure_change,not_first,no_update,correct,19,1025,3030,3200,0,-12.7154803810892,7.84707961562404,100,-29.4626225621725,575,-10.8007355519144,-16.5217743878152,0,NaN
211335542,48,b_1,red,blue,Y,no_color_change,figure_change,not_first,no_update,correct,3,1009,3014,3225,0,12.4534976440739,38.0686142322097,1500,-6.27805243445692,2850,5.69468164794007,18.3050187265918,0,NaN
211335542,49,b_1,red,blue,Y,no_color_change,no_figure_change,not_first,no_update,correct,14,1020,3025,2975,0,3.11530117516414,24.8402566700439,2000,-20.0118878757177,2450,9.33198243836542,-0.631678486997629,1,250
211335542,52,b_1,red,blue,Y,no_color_change,figure_change,not_first,no_update,correct,22,1028,3033,3450,0,-5.48660918929021,-0.0296310676635585,1775,-11.0914705949969,2125,-1.99626546371344,-6.69406688958085,0,NaN
211335542,55,b_2,blue,blue,Y,no_color_change,figure_change,not_first,update,correct,12,1019,3023,3275,0,-4.19909016936087,4.57984967915608,2975,-14.3242431798405,3025,-1.1752403148901,-12.8424073725402,1,175
211335542,59,b_2,red,blue,Y,no_color_change,figure_change,not_first,no_update,correct,9,1016,3021,3300,0,3.9853511326293,15.8132806826699,1175,-6.22475494985258,2875,5.40991399549125,-4.71231214766294,0,NaN
211335542,63,b_3,blue,blue,Y,no_color_change,figure_change,not_first,update,correct,14,1022,3027,2225,0,14.4699801320003,40.46875687085,1800,-14.335048297495,1325,-2.17668528208962,7.64991278601059,0,NaN
211335542,67,b_3,red,blue,Y,no_color_change,no_figure_change,not_first,no_update,correct,29,1036,3039,2875,0,-7.38590692260448,11.4634566172842,1975,-33.5724039796656,1775,-13.1620439966492,-26.6527431922243,2,125
211335542,69,b_0,red,red,X,no_color_change,no_figure_change,not_first,update,correct,13,1021,3032,3275,0,-3.4952532059249,3.52014709618106,200,-9.19955967919485,2275,1.46031669227141,-6.54505425381349,0,NaN
211335542,70,b_0,red,red,Y,no_color_change,figure_change,not_first,update,correct,22,1034,3044,3325,0,-0.835983731255239,7.38350978504972,925,-11.2521013795316,2825,0.650625601539943,-6.55296759704845,0,NaN
211335542,73,b_0,red,red,Y,no_color_change,figure_change,not_first,update,correct,10,1019,3029,3275,0,-0.774418677516648,5.38297691994302,2850,-7.92093556122462,2475,1.03929980559269,-0.317723329149885,1,150
211335542,80,b_1,red,red,Y,no_color_change,figure_change,not_first,update,correct,22,1032,3043,3475,0,-5.00431242836439,2.63666331776136,2875,-10.8619122871069,2600,-0.840779539876408,-0.826922000708862,0,NaN
211335542,82,b_1,blue,red,X,no_color_change,no_figure_change,not_first,no_update,correct,20,1030,3040,3250,0,-5.39246838616327,15.4667662629708,2225,-20.9964505757694,850,4.23972064281405,-4.75084817918977,1,125
211335542,83,b_1,blue,red,Y,no_color_change,figure_change,not_first,no_update,correct,8,1016,3031,3300,0,2.54497210514173,20.5778181405381,1875,-14.0918378930639,1650,0.685094789419907,2.00760585764559,2,212.5
211335542,84,b_1,blue,red,Y,no_color_change,no_figure_change,not_first,no_update,correct,18,1027,3038,3250,0,-2.34151267955234,16.768875255071,800,-16.0031892322869,675,0.31757185907918,-4.1481641643806,0,NaN
211335542,87,b_1,blue,red,X,no_color_change,no_figure_change,not_first,no_update,correct,31,1043,3053,1575,0,-9.16604711578857,5.94081123400781,750,-23.9734699506362,1475,-15.0087195602649,-19.0305760121965,0,NaN
211335542,88,b_1,blue,red,Y,no_color_change,figure_change,not_first,no_update,correct,10,1020,3030,3000,0,-10.0076120349525,9.53485107513674,125,-27.0591538280283,600,-6.44480429954427,-12.5970731413846,1,275
211335542,92,b_2,blue,red,Y,no_color_change,no_figure_change,not_first,no_update,correct,9,1020,3030,3125,0,7.72756345629646,16.9502155779701,2875,-0.764142854112947,2600,0.89745881597247,9.24061410179885,0,NaN
211335542,94,b_2,red,red,X,no_color_change,no_figure_change,not_first,update,correct,8,1018,3028,2900,0,-22.5463469178361,-3.6412730474847,250,-39.8991711669602,2550,-6.27237974408841,-10.7660654218869,1,200
211335542,100,b_2,blue,red,Y,no_color_change,no_figure_change,not_first,no_update,correct,17,1027,0,2275,0,2.81405499567265,27.0386586397333,75,-21.7174983830041,50,-21.7174983830041,14.9081491063679,0,NaN
211335542,101,b_2,blue,red,X,no_color_change,figure_change,not_first,no_update,correct,482,1491,3501,2000,0,-7.64919788640139,12.0214580024737,1750,-30.0643788864575,275,9.46337917188114,-25.9391535359597,0,NaN
211335542,102,b_2,blue,red,X,no_color_change,no_figure_change,not_first,no_update,correct,15,1024,3033,2850,0,0.542344488871206,28.022317169952,2125,-23.7312320135955,1650,19.2090123743791,17.6592089054914,0,NaN
211335542,104,b_2,red,red,Y,no_color_change,figure_change,not_first,update,correct,209,1216,3221,1450,0,-2.73613283770104,9.79800756085332,550,-15.9607298537978,1400,-7.19124908382517,2.79336882305289,0,NaN
211335542,106,b_3,red,red,Y,no_color_change,no_figure_change,not_first,update,correct,10,1018,3022,3500,0,-6.94189472601024,0.124499377503113,3025,-16.5124174379128,3075,-1.65849170754146,-13.7149314253429,1,200
211335542,108,b_3,blue,red,Y,no_color_change,figure_change,not_first,no_update,correct,10,1017,3023,3525,0,1.03228451731896,9.25997968099725,1775,-4.9705990187545,225,-4.47046048009942,3.43995678713466,1,125
211335542,111,b_3,blue,red,X,no_color_change,figure_change,not_first,no_update,correct,20,1027,3031,3450,0,-7.03375304975253,5.39831565086433,600,-17.9713157778774,575,-1.1234178445619,-4.04160845233251,0,NaN
211335542,112,b_3,blue,red,Y,no_color_change,figure_change,not_first,no_update,correct,6,1013,3019,2725,0,7.29320705480238,32.3213441941878,2625,-14.0018246710986,2350,-4.00298366414165,1.22407496010389,1,125
211335542,113,b_3,blue,red,X,no_color_change,figure_change,not_first,no_update,correct,22,1029,3034,3025,0,-19.3031425290645,2.26675911557214,50,-36.2916983084051,125,2.26675911557214,-8.55614620134051,0,NaN
211335542,116,b_3,blue,red,X,no_color_change,figure_change,not_first,no_update,correct,2,1009,3014,2700,0,17.032928284944,40.0301131916526,2375,-0.86347533893057,1775,16.0184576890797,26.2585145206565,0,NaN
211335542,117,b_3,blue,red,X,no_color_change,no_figure_change,not_first,no_update,correct,14,1021,3027,2550,0,-13.0441724038544,6.03641977861406,1425,-34.671390301844,2250,-4.68687537046993,-12.3186707653851,0,NaN
211335542,120,b_0,blue,red,X,no_color_change,no_figure_change,not_first,no_update,correct,5,1011,3017,3250,0,-4.00184839847217,5.51743453297857,1700,-12.1902967498822,1250,1.31226846252753,0.628890784331205,1,150
211335542,121,b_0,blue,red,Y,no_color_change,figure_change,not_first,no_update,correct,21,1030,3036,3250,0,-6.31554482188801,6.96315624571641,3125,-20.0946795386453,3100,-2.40248105430121,6.96315624571641,1,375
211335542,122,b_0,blue,red,X,no_color_change,figure_change,not_first,no_update,correct,53,1061,3066,3375,0,-2.45277228884046,13.6960989351308,425,-17.5886116790932,2750,-15.3894197253472,-13.4618225356274,0,NaN
211335542,123,b_0,blue,red,Y,no_color_change,figure_change,not_first,no_update,correct,15,1022,3026,3325,0,-8.61835907642882,7.12614386655855,675,-24.6524318828269,750,-5.42697916264463,-19.50937616639,1,175
211335542,124,b_0,blue,red,X,no_color_change,figure_change,not_first,no_update,correct,2,1009,3016,3150,0,7.41868896610302,33.1618411220572,700,-10.9571784807336,725,7.92986856081103,23.9871509675424,1,125
211335542,126,b_0,red,red,Y,no_color_change,figure_change,not_first,update,correct,22,1028,3033,3025,0,2.52388913440945,20.7885427560707,500,-9.01040684417165,425,-2.96146438756207,12.0341637092027,0,NaN
211335542,128,b_0,blue,red,Y,no_color_change,no_figure_change,not_first,no_update,correct,274,1280,0,1675,0,0.184592539148619,20.0230333271125,300,-22.9793043836989,1025,7.67908534608925,1.91780687365556,0,NaN
211335542,131,b_1,red,red,Y,no_color_change,figure_change,not_first,update,correct,21,1029,3034,3175,0,-13.6046507989514,10.1550356794761,1100,-30.3772231013213,600,-14.8028337895039,-13.4368930223426,0,NaN
211335542,133,b_1,blue,red,X,no_color_change,no_figure_change,not_first,no_update,correct,19,1026,3031,2850,0,21.7806046335155,53.1710247532427,200,-4.61571753397757,2775,29.052762131156,25.7496382615885,1,125
211335542,135,b_1,red,red,Y,no_color_change,figure_change,not_first,update,correct,16,1022,3028,2600,0,-12.6523181822816,13.0812505426909,75,-34.3394251817729,250,5.01583514991979,-11.6988168195341,0,NaN
211335542,136,b_1,red,red,Y,no_color_change,no_figure_change,not_first,update,correct,5,1012,3017,3150,0,-9.70146325907086,13.0562732925322,75,-21.972276086415,2475,-19.7706280863368,-18.0122403325307,1,300
211335542,137,b_1,red,red,Y,no_color_change,no_figure_change,not_first,update,correct,16,1022,3027,3300,0,3.9757440169874,26.0464742946583,2975,-10.2098968575671,225,19.5600823304801,15.3588007422739,0,NaN
211335542,139,b_2,red,red,X,no_color_change,figure_change,not_first,update,correct,17,1027,3033,3375,0,-1.21180130766455,6.29643624925319,1300,-9.21499440850113,2925,-1.58706653117707,-6.6924369232969,0,NaN
211335542,143,b_2,blue,red,Y,no_color_change,no_figure_change,not_first,no_update,correct,10,1017,3022,2850,0,9.0203447960851,34.5078643931334,2675,-11.0535698881445,2150,-2.08298588147339,29.6635707507836,1,275
211335542,145,b_2,red,red,X,no_color_change,figure_change,not_first,update,correct,8,1014,0,2100,0,5.69665905791689,32.0580182254735,1900,-13.6095704797877,400,16.9300327159887,15.0431766803802,0,NaN
211335542,146,b_2,red,red,Y,no_color_change,figure_change,not_first,update,correct,520,1526,3531,2500,0,-11.7231263403505,11.2168318536886,150,-26.0683286816731,450,-2.47910291768802,-16.1240778270337,0,NaN
211335542,150,b_2,blue,red,Y,no_color_change,figure_change,not_first,no_update,correct,15,1021,3027,2800,0,-7.65131837241347,16.1110601281872,2725,-30.3959119208273,50,-30.3959119208273,1.53979163547316,0,NaN
211335542,151,b_2,blue,red,Y,no_color_change,no_figure_change,not_first,no_update,correct,3,1009,3014,3225,0,-18.5116964716706,-0.153889168976477,2000,-31.3645500117784,2625,-9.40903476926532,-30.3857356408636,0,NaN
211335542,155,b_3,blue,red,Y,no_color_change,figure_change,not_first,no_update,correct,10,1017,3022,3500,0,-6.31300319870601,2.18651659909845,375,-17.5608822612196,3075,0.797824587266931,-12.9986108354832,0,NaN
211335542,156,b_3,blue,red,Y,no_color_change,no_figure_change,not_first,no_update,correct,21,1028,3033,2100,0,8.35682493635957,33.028565103795,1975,-11.905767488735,975,-2.52358579871316,26.8937816212815,0,NaN
211335542,159,b_3,blue,red,X,no_color_change,figure_change,not_first,no_update,correct,150,1156,3161,3125,0,2.72611827652483,20.1693882926187,850,-9.40222997739295,2300,-0.218388534053247,5.25751190711354,1,200
211335542,160,b_3,blue,red,X,no_color_change,no_figure_change,not_first,no_update,correct,16,1023,3028,2850,0,-2.38123707121059,12.6965799630093,1050,-14.5129734757369,2025,-1.68569656927205,-5.53631183381977,0,NaN
211335542,162,b_0,blue,blue,Y,no_color_change,no_figure_change,not_first,update,correct,520,1529,3533,2575,0,-1.07814035797992,2.54312306515098,125,-5.06048982000588,325,-2.42484408680126,-1.82844796975259,0,NaN
211335542,163,b_0,blue,blue,Y,no_color_change,no_figure_change,not_first,update,correct,4,1010,3014,3275,0,0.451747638826257,7.2495379585777,1400,-7.43511718183967,2300,-0.484539725393589,-0.499030157894865,0,NaN
211335542,164,b_0,blue,blue,Y,no_color_change,no_figure_change,not_first,update,correct,16,1023,3027,3375,0,-0.574681891126733,8.28066208463039,1400,-10.8329262022729,2425,-0.415145787024841,-6.70551251192617,0,NaN
211335542,167,b_0,blue,blue,X,no_color_change,figure_change,not_first,update,correct,22,1028,3032,3525,0,-1.33676980610745,1.91578310176209,1175,-5.10323758358793,2875,0.149677944139157,0.423732821322844,1,350
211335542,168,b_0,blue,blue,Y,no_color_change,figure_change,not_first,update,correct,13,1020,3025,3475,0,1.91493233248389,7.07759734514347,1225,-7.19177169009544,2900,1.93296438778553,-4.65811934733969,0,NaN
211335542,170,b_0,red,blue,X,no_color_change,no_figure_change,not_first,no_update,correct,15,1023,3028,3350,0,1.07780759800299,7.57489285341909,2200,-5.34580495755294,375,-3.85425869931458,3.60374697492688,1,125
211335542,171,b_0,red,blue,X,no_color_change,no_figure_change,not_first,no_update,correct,23,1029,3033,3350,0,1.99992518155628,17.7862070069301,2400,-11.4272072043234,2175,-1.15555128759141,17.7854215829761,0,NaN
211335542,177,b_1,blue,blue,Y,no_color_change,no_figure_change,not_first,update,correct,25,1032,3036,2825,0,9.95951417004049,35.9968602825746,2500,-15.6487372276846,900,-1.61722988790657,19.7551571235782,0,NaN
211335542,178,b_1,blue,blue,X,no_color_change,figure_change,not_first,update,correct,14,1023,3026,2550,0,4.33659797073673,31.1703599790119,1575,-16.7649465645534,1850,9.47972824180933,-8.14622091363603,0,NaN
211335542,180,b_1,red,blue,X,no_color_change,figure_change,not_first,no_update,correct,39,1047,3051,3050,0,-12.7095428123327,3.32657514234342,425,-25.1339151932874,775,-3.321658675457,-24.6956472879832,1,300
211335542,182,b_2,blue,blue,Y,no_color_change,no_figure_change,not_first,update,correct,6,1011,3015,3325,0,0.802060831653495,7.33525118533909,1575,-8.47770497043311,2725,0.963187896222891,-4.39374567151457,1,375
211335542,186,b_2,red,blue,X,no_color_change,no_figure_change,not_first,no_update,correct,27,1034,3037,3375,0,-0.550376239352618,6.88553483829074,1875,-7.5436126617229,1450,-3.22681858114929,-0.0281019966059404,0,NaN
211335542,188,b_2,blue,blue,Y,no_color_change,figure_change,not_first,update,correct,22,1027,3032,2325,0,1.36896540195444,23.4611418842769,375,-19.9897689215005,2250,-9.92547831624157,6.0390006580928,0,NaN
211335542,190,b_2,red,blue,Y,no_color_change,figure_change,not_first,no_update,correct,23,1030,3035,1750,0,-0.471515801289545,18.0828277723594,950,-24.9517660588915,525,-9.53815853793891,3.30966308267428,1,250
211335542,191,b_2,red,blue,Y,no_color_change,no_figure_change,not_first,no_update,correct,63,1069,3075,2750,0,-10.9140427515865,9.7384393063584,150,-22.9619460500963,1025,-11.3964354527938,-12.8302023121387,1,150
211335542,192,b_2,red,blue,Y,no_color_change,no_figure_change,not_first,no_update,correct,21,1028,3033,3500,0,2.32454511151797,21.7536752992581,1700,-13.8258954986118,2325,-1.14781985344318,2.31839697783442,0,NaN
211335542,196,b_3,red,blue,X,no_color_change,figure_change,not_first,no_update,correct,12,1020,3024,775,0,4.50581463683286,12.9290456473338,125,-11.0408418210576,50,-11.0408418210576,9.54982319339922,1,125
211335542,197,b_3,red,blue,Y,no_color_change,figure_change,not_first,no_update,correct,22,1029,3035,3250,0,-7.64226218202694,7.98808632814196,2025,-20.3127594301668,1775,-2.31683112676669,-13.4480935315199,2,162.5
211335542,205,b_0,red,red,Y,no_color_change,no_figure_change,not_first,update,correct,10,1016,3021,3500,0,3.06071669364288,8.15700599627817,775,-1.09156385691639,2925,-0.977625956302987,-0.145599283203524,0,NaN
211335542,206,b_0,red,red,X,no_color_change,figure_change,not_first,update,correct,21,1030,3035,3400,0,-1.06010613131578,5.25524610919913,2600,-5.87938408524302,1500,0.145537924703163,0.755970535640472,0,NaN
211335542,207,b_0,red,red,X,no_color_change,no_figure_change,not_first,update,correct,10,1017,3022,3400,0,-3.72384151365379,3.66523392474335,1225,-14.9963912139525,3075,-0.181839726809514,-14.9543784808627,0,NaN
211335542,208,b_0,red,red,X,no_color_change,no_figure_change,not_first,update,correct,24,1033,3038,3475,0,3.82414360382451,10.5174460242497,2775,-2.83889158774596,300,-1.42132386451848,7.56161323764354,0,NaN
211335542,209,b_0,red,red,X,no_color_change,no_figure_change,not_first,update,correct,9,1015,3020,3425,0,-3.8933645657823,0.4972718793898,1025,-10.0008937144376,2975,-1.58966591121062,-8.93004049213874,0,NaN
211335542,210,b_0,red,red,Y,no_color_change,figure_change,not_first,update,correct,51,1061,3065,3375,0,8.94519319663559,17.8827195637192,2225,-4.56792780227893,675,2.16015668627061,11.5008594318216,0,NaN
211335542,211,b_0,red,red,Y,no_color_change,no_figure_change,not_first,update,correct,6,1012,3017,3150,0,-6.70244476758147,-0.819194933317092,100,-13.0579136471591,2525,-1.10005480786798,-8.98970830034712,0,NaN
211335542,214,b_0,red,red,Y,no_color_change,no_figure_change,not_first,update,correct,15,1023,3028,3250,0,-2.39381465007705,4.62162320300595,1150,-15.1231152391201,3025,0.475467262972316,-9.55564544235754,0,NaN
211335542,215,b_0,red,red,Y,no_color_change,no_figure_change,not_first,update,correct,4,1011,3015,3350,0,2.58211553309843,11.865247289077,775,-9.81938199770784,975,-1.20503834964295,7.5150974169091,1,125
211335542,216,b_0,red,red,Y,no_color_change,no_figure_change,not_first,update,correct,12,1018,3024,2900,0,-3.34972429828726,5.55556994248394,2275,-18.6369133478181,2325,-0.175060144554095,-7.05238597136368,0,NaN
211335542,217,b_0,red,red,Y,no_color_change,no_figure_change,not_first,update,correct,55,1066,3070,3400,0,15.0865949901803,25.8075357112054,2825,-1.93166170491823,325,0.499644598038898,23.6798824645565,0,NaN
211335542,220,b_1,red,red,X,no_color_change,figure_change,not_first,update,correct,18,1025,3032,3450,0,2.53074020785408,9.60268920826188,2450,-2.12263315779623,900,0.0182113426312327,3.99814851349916,0,NaN
211335542,223,b_1,red,red,Y,no_color_change,no_figure_change,not_first,update,correct,2,1010,3015,3475,0,15.3682850555327,26.9527606287868,2050,-2.33886406231613,125,-1.32341418472693,20.823897800624,0,NaN
211335542,225,b_2,red,red,Y,no_color_change,no_figure_change,not_first,update,correct,7,1013,3022,2875,0,2.4161497944088,12.4388711374352,650,-4.88738650976113,2375,-0.512167322604526,-3.76441764407902,0,NaN
211335542,227,b_2,blue,red,X,no_color_change,figure_change,not_first,no_update,correct,4,1014,3025,3300,0,2.40429888319809,9.28295456592973,1100,-4.32178369459739,2600,1.5299989446508,0.0998720710842065,0,NaN
211335542,230,b_2,blue,red,X,no_color_change,figure_change,not_first,no_update,correct,13,1023,3034,3325,0,0.390381631904436,7.6236938689557,875,-7.18096307735505,2425,-1.71000381059345,-2.47162110667657,0,NaN
211335542,233,b_2,blue,red,X,no_color_change,figure_change,not_first,no_update,correct,168,1178,3188,3450,0,8.22867692239253,16.2563356864228,3100,1.60786723348411,175,2.30044846789687,15.6104640655714,0,NaN
211335542,236,b_2,blue,red,Y,no_color_change,no_figure_change,not_first,no_update,correct,26,1035,3045,2975,0,-1.59913407585068,8.6125099776977,1000,-10.5963812448454,2400,1.6749272721969,-1.97352893598628,1,350
211335542,237,b_2,blue,red,X,no_color_change,figure_change,not_first,no_update,correct,20,1030,3041,3325,0,4.78458010837156,22.6640813436304,1675,-12.0236883450245,1425,4.03288265362572,8.78797769467371,1,200
211335542,241,b_3,blue,red,Y,no_color_change,no_figure_change,not_first,no_update,correct,5,1015,3024,3150,0,3.57033894561298,19.7867370548509,2950,-15.4027533118708,2900,0.992042674677378,11.8153304139908,1,200
211335542,243,b_3,red,red,Y,no_color_change,no_figure_change,not_first,update,correct,3,1013,3022,3200,0,0.0790019974618506,11.3241799340529,100,-14.5828722548907,600,11.3241799340529,1.64363375570453,1,125
211335542,245,b_3,blue,red,Y,no_color_change,figure_change,not_first,no_update,correct,23,1032,3042,3375,0,-0.866829630637227,6.58718839141758,1350,-7.96175665873669,3125,-0.994770350159186,-7.96175665873669,2,200
211335542,246,b_3,blue,red,X,no_color_change,figure_change,not_first,no_update,correct,13,1021,3032,3325,0,-0.72854660931203,10.2787042763739,50,-11.4656962360841,2250,10.2787042763739,-1.98163323908818,1,225
211335542,248,b_3,red,red,X,no_color_change,figure_change,not_first,update,correct,11,1020,3030,3500,0,17.7498516521884,30.151433034718,500,-0.272260656103555,175,3.59199158351133,26.4835655306532,0,NaN
314919309,3,b_0,blue,red,Y,no_color_change,no_figure_change,not_first,no_update,correct,8,1016,3021,3100,0,-3.70279204103318,0,25,-7.11995883124607,1400,0,-0.969954402230542,0,NaN
314919309,4,b_0,blue,red,X,no_color_change,figure_change,not_first,no_update,correct,210,1217,3222,2825,0,-4.45225698855683,0.462438961290943,1575,-8.93811510310556,2250,-3.3118822020287,-1.07579040412206,0,NaN
314919309,6,b_0,red,red,Y,no_color_change,no_figure_change,not_first,update,correct,2198,3205,5211,2750,0,3.553544515679,15.1547705793908,175,-0.699830270796227,950,0,1.53306637490562,0,NaN
314919309,8,b_1,red,red,X,no_color_change,figure_change,not_first,update,correct,6,1013,3018,2925,0,2.29810894957019,9.4241299713435,1025,-1.31113887482641,450,-0.385956927021169,1.38661179978543,1,125
314919309,10,b_1,blue,red,X,no_color_change,figure_change,not_first,no_update,correct,228,1236,3240,2975,0,-1.8913621633081,4.44103001211251,1800,-6.58606612534207,2775,-1.6852092772868,-4.5904176573505,0,NaN
314919309,13,b_1,blue,red,X,no_color_change,figure_change,not_first,no_update,correct,20,1028,3032,3225,0,-0.455316490577587,2.73850456304842,1550,-4.39619824773537,500,0.544008142108623,-0.701626395203007,1,200
314919309,16,b_1,blue,red,Y,no_color_change,figure_change,not_first,no_update,correct,9,1017,3022,3025,0,2.70194335225426,6.70714754649889,1625,-1.51394440926964,2825,0.919581048593415,-0.759775805392721,0,NaN
314919309,21,b_1,blue,red,Y,no_color_change,no_figure_change,not_first,no_update,correct,15,1021,3026,3300,0,0.424424009303682,5.16577475092389,2825,-2.98010954528019,2250,0.775998138610618,4.45140369301329,0,NaN
314919309,24,b_2,blue,red,Y,no_color_change,figure_change,not_first,no_update,correct,19,1025,3031,3100,0,-1.10626756869051,2.19299257882247,1575,-4.55824375955973,2150,-0.616857843641228,-1.47689195965665,0,NaN
314919309,29,b_3,red,red,X,no_color_change,figure_change,not_first,update,correct,14,1022,3028,3025,0,1.08087792841929,4.6224831507115,1550,-2.69230120370136,2800,0.30113621985474,-2.28593601066208,0,NaN
314919309,30,b_3,red,red,Y,no_color_change,figure_change,not_first,update,correct,4,1011,3017,2975,0,2.22265564757929,9.03387342153937,2850,-2.96730640432544,2200,-0.460398213406549,9.03387342153937,0,NaN
314919309,33,b_3,red,red,X,no_color_change,figure_change,not_first,update,correct,4,1009,3015,2675,0,3.43131254028265,8.00822323440933,2275,0.0620043190841244,75,0.228920889090062,3.3057968144397,0,NaN
314919309,35,b_3,blue,red,X,no_color_change,no_figure_change,not_first,no_update,correct,26,1033,3038,3275,0,-1.17617188439467,3.3514512637915,1675,-4.6437807057212,2675,-0.171886181931541,-4.28683698692085,1,200
314919309,36,b_3,blue,red,Y,no_color_change,figure_change,not_first,no_update,correct,13,1020,3026,2725,0,-1.3786556570296,4.28773240164709,1475,-5.86975703666732,2350,0.0541453501844984,-3.43589012281859,0,NaN
