participant_id,trial_id,block,border_color,dominant,figure,is_color_change,is_figure_change,is_first,is_update,is_correct,event_fixation,event_stimulus_on,event_stimulus_off,event_Trial_Offset,event_Trial_Onset,trial_mean,trial_max,trial_max_latency,trial_min,trial_min_latency,first_bin,last_bin,valid_blinks,blinks_mean
207280074,2,b_0,red,red,Y,no_color_change,figure_change,not_first,update,correct,21,1031,3037,2200,0,-1.53197510908793,6.92242680061882,1675,-9.77639093148959,475,0,0.232060660465649,0,NaN
207280074,3,b_0,red,red,Y,no_color_change,no_figure_change,not_first,update,correct,9,1015,3019,2100,0,-7.61884746066288,-0.412946009830037,75,-17.8153022173864,1750,-0.668311259520507,-6.16886466814242,0,NaN
207280074,4,b_0,red,red,Y,no_color_change,no_figure_change,not_first,update,correct,14,1020,0,1125,0,-2.32026620027653,1.48851214562571,900,-8.68964643573209,1125,-3.62456361744994,-8.68964643573209,0,NaN
207280074,5,b_0,blue,red,Y,color_change,no_figure_change,not_first,no_update,correct,228,1235,3239,1875,0,-2.62127068916387,2.44343803357478,600,-10.5771242052624,1400,0,0.0396456698658909,0,NaN
207280074,6,b_0,blue,red,X,no_color_change,figure_change,not_first,no_update,correct,15,1023,3027,1575,0,-4.20709658071007,8.89402079619016,1500,-24.3968745886829,1375,0,-15.2446364256399,0,NaN
207280074,7,b_0,red,red,X,color_change,no_figure_change,not_first,update,correct,44,1051,3057,1775,0,10.8037239063985,17.6047725577927,1525,-0.921429055657242,175,0,11.9886109416311,1,150
207280074,8,b_0,red,red,X,no_color_change,no_figure_change,not_first,update,correct,17,1026,3032,3050,0,4.01855549611782,11.394291733137,1150,-6.66876303840962,225,-6.1582198224731,6.57365934470486,0,NaN
207280074,9,b_0,red,red,X,no_color_change,no_figure_change,not_first,update,correct,23,1029,3034,2875,0,-3.99561488069009,4.72255683058954,1350,-14.3505897325716,2325,-0.744591672126063,-7.47174613908906,0,NaN
207280074,10,b_0,blue,red,X,color_change,no_figure_change,not_first,no_update,correct,11,1018,3024,2850,0,2.13918230309604,7.83529595030741,600,-7.64373999016664,2525,1.32750470979394,-4.16729913840753,1,275
207280074,11,b_0,red,red,X,color_change,no_figure_change,not_first,update,correct,23,1029,3034,2150,0,2.64341560973377,8.75362781373732,1750,-5.46914737650474,2150,0.699382648328964,-5.46914737650474,0,NaN
207280074,12,b_0,blue,red,X,color_change,no_figure_change,not_first,no_update,correct,56,1062,3067,2400,0,1.78374023829066,10.7143685821167,1700,-12.7338023775333,600,4.52664605897169,3.00710785008805,0,NaN
207280074,13,b_0,red,red,X,color_change,no_figure_change,not_first,update,correct,18,1024,3028,1600,0,6.17968757809454,13.751636861624,1575,-0.759453813012925,100,0.687231979527979,4.74514939173723,0,NaN
207280074,15,b_1,red,red,Y,no_color_change,figure_change,not_first,update,correct,9,1017,3022,2800,0,2.59347767267233,12.2974736724855,2400,-8.09863162304374,825,2.01830152722589,11.305878621017,0,NaN
207280074,16,b_1,red,red,X,no_color_change,figure_change,not_first,update,correct,22,1028,3034,2975,0,1.13185585740681,7.55732815236428,2175,-8.38008063339171,1025,-0.323126459427911,-2.00534515469936,1,250
207280074,17,b_1,blue,red,X,color_change,no_figure_change,not_first,no_update,correct,9,1016,3021,2725,0,-2.29265386808819,3.31776642552353,875,-9.0059986846738,2100,-1.61182819271079,-1.06909005555814,0,NaN
207280074,18,b_1,red,red,Y,color_change,figure_change,not_first,update,correct,62,1069,3074,2850,0,4.15509977373886,11.9523551257538,1850,-3.82317252537138,375,0.433657523165166,2.20988380644212,0,NaN
207280074,20,b_2,blue,red,X,color_change,figure_change,not_first,no_update,correct,17,1025,3030,2600,0,2.22503956020615,9.50796060570673,500,-6.0011094242672,1950,0.2907372805481,4.52041729923313,0,NaN
207280074,21,b_2,red,red,X,color_change,no_figure_change,not_first,update,correct,130,1136,3141,2500,0,-3.29501786871863,4.93851149353979,1650,-12.5210404702765,1000,-1.88691171547431,-5.38612628262004,0,NaN
207280074,22,b_2,blue,red,Y,color_change,figure_change,not_first,no_update,correct,122,1133,3138,3050,0,0.0606506251518166,7.81806691745786,2275,-7.33564220457396,825,-1.52042156804204,1.34427061563265,0,NaN
207280074,23,b_2,blue,red,X,no_color_change,figure_change,not_first,no_update,correct,6,1013,3018,2325,0,-2.01393167144997,5.62626156381322,2225,-11.4501159511753,1750,-0.288500548451566,-10.0549453301478,0,NaN
207280074,24,b_2,blue,red,X,no_color_change,no_figure_change,not_first,no_update,correct,38,1045,3050,1900,0,8.2293841848613,25.6614256943948,1600,-3.08631247508153,275,4.22361708870464,17.0447459082591,0,NaN
207280074,25,b_2,red,red,X,color_change,no_figure_change,not_first,update,correct,3,1010,3015,2575,0,-5.81674735169303,1.15820877174112,125,-16.6667032540047,2375,0.59556868797074,-14.8018466361236,1,150
207280074,27,b_3,blue,red,Y,color_change,no_figure_change,not_first,no_update,correct,12,1021,3026,2600,0,-1.37624977278659,7.5105539915568,325,-11.9978304017357,2250,-10.1474318820545,-9.27119258304593,1,125
207280074,28,b_3,red,red,X,color_change,figure_change,not_first,update,correct,68,1076,3081,2200,0,9.51356266063514,19.8882815067061,2050,-11.4129918234229,75,-0.646848446830518,14.1953634381271,1,150
207280074,29,b_3,red,red,X,no_color_change,no_figure_change,not_first,update,correct,5,1012,3018,2975,0,-3.06496127034018,3.65609996123221,800,-10.136532172288,1325,-0.000745534249844582,-2.7323830256762,0,NaN
207280074,30,b_3,red,red,Y,no_color_change,figure_change,not_first,update,correct,67,1073,3079,2850,0,0.28399306990941,9.9871562718581,1875,-9.92817748228808,925,-2.48076487203797,-0.214224611702662,0,NaN
207280074,32,b_0,blue,blue,Y,no_color_change,figure_change,not_first,update,correct,22,1029,3035,2550,0,-1.70469285563207,3.86982647785609,1325,-12.4741266903136,2525,-1.12360831228514,-11.3890433942135,0,NaN
207280074,33,b_0,blue,blue,X,no_color_change,figure_change,not_first,update,correct,9,1015,3021,2975,0,5.44005289199428,14.7317180007978,1925,-2.55362641545838,175,0.328785267499796,2.19798557099389,0,NaN
207280074,34,b_0,red,blue,Y,color_change,figure_change,not_first,no_update,correct,21,1027,3032,3150,0,1.65652230846645,6.88905464728109,1900,-3.5681531933626,2500,0.496704532948556,-2.73737756636791,0,NaN
207280074,35,b_0,blue,blue,X,color_change,figure_change,not_first,update,correct,6,1013,3019,2750,0,3.17855441469759,10.5459338709095,1725,-4.42494312114036,2550,0.146259924780608,-3.76148540238246,0,NaN
207280074,36,b_0,red,blue,X,color_change,no_figure_change,not_first,no_update,correct,14,1020,3026,2800,0,-2.89899292084664,3.40774052533068,1375,-16.8163603703192,2550,1.66266785584182,-8.06830220123022,1,150
207280074,37,b_0,blue,blue,X,color_change,no_figure_change,not_first,update,correct,6,1012,3017,2775,0,5.23060596923684,19.3730098458505,1725,-8.77040116178371,2450,1.02002478116631,-2.99665587486844,0,NaN
207280074,38,b_0,blue,blue,X,no_color_change,no_figure_change,not_first,update,correct,15,1022,3028,2775,0,2.89450742252428,11.9002081125595,1825,-7.59700215773144,325,0.39707365652491,2.66511752614174,1,150
207280074,39,b_0,blue,blue,Y,no_color_change,figure_change,not_first,update,correct,4,1011,3015,3075,0,-4.90991693383189,-0.0788964333448092,525,-9.41080232979157,2075,-6.5808118510042,-7.66435266929207,0,NaN
207280074,40,b_0,red,blue,X,color_change,figure_change,not_first,no_update,correct,16,1022,3027,2700,0,0.495550061003208,7.58515166316126,1575,-7.97589736944408,2575,-0.951944258928833,-6.39248013875459,1,125
207280074,42,b_1,red,blue,Y,color_change,figure_change,not_first,no_update,correct,49,1059,3065,1475,0,4.41109758240106,14.9389382899774,225,-4.41319119571918,850,5.97871864954533,5.35471782442026,0,NaN
207280074,43,b_1,red,blue,X,no_color_change,figure_change,not_first,no_update,correct,10,1017,3023,3075,0,-6.04461017613305,0.0191031200228338,100,-13.8951031568481,1825,-0.526601670026977,-6.89093269257326,0,NaN
207280074,44,b_1,red,blue,Y,no_color_change,figure_change,not_first,no_update,correct,22,1028,3034,3025,0,4.60815031278621,13.0003406467241,2450,-4.97318984115769,1425,1.54805011291808,5.82253567328195,0,NaN
207280074,45,b_1,blue,blue,X,color_change,figure_change,not_first,update,correct,8,1016,3020,2450,0,9.06027179930659,20.6700194594143,1800,-1.36659345475034,2125,1.25051517886489,6.51186085214496,0,NaN
207280074,46,b_1,red,blue,X,color_change,no_figure_change,not_first,no_update,correct,20,1027,3033,2850,0,-2.68796773415916,3.34331062281771,1000,-10.4716006719692,375,-2.8743220994965,0.913293440151847,0,NaN
207280074,47,b_1,red,blue,X,no_color_change,no_figure_change,not_first,no_update,correct,6,1012,3017,2900,0,-4.12176721815993,4.49926699761744,1050,-12.983379680838,2300,-0.885601241905178,-10.70519387973,0,NaN
207280074,48,b_1,blue,blue,Y,color_change,figure_change,not_first,update,correct,15,1022,3027,3125,0,0.83329215610769,9.17500292500293,2025,-5.82197457197458,1075,-1.08590733590734,0.382444132444135,0,NaN
207280074,49,b_1,red,blue,X,color_change,figure_change,not_first,no_update,correct,5,1012,3016,3025,0,-4.92433246444082,2.78074816800219,1125,-20.0293027066813,2575,-1.49406770638039,-15.7975382023044,0,NaN
207280074,51,b_2,blue,blue,X,no_color_change,no_figure_change,not_first,update,correct,113,1120,3126,2675,0,-9.30550040128017,4.06519000629855,950,-26.8010516672074,2275,-0.802349550512474,-9.12932071078197,0,NaN
207280074,52,b_2,blue,blue,X,no_color_change,no_figure_change,not_first,update,correct,9,1017,3022,2225,0,5.29718671439678,23.9102234836283,1700,-8.91409766417384,1850,-3.48821349491713,12.4644141281353,0,NaN
207280074,53,b_2,red,blue,Y,color_change,figure_change,not_first,no_update,correct,18,1027,3032,3000,0,2.85062613962775,9.46781081094773,1300,-6.27244682413847,2250,-1.26664674207618,-1.02275343206701,0,NaN
207280074,54,b_2,blue,blue,Y,color_change,no_figure_change,not_first,update,correct,7,1013,3019,2850,0,-0.174881699791822,8.37430767491806,1825,-4.93175652763648,300,-0.565163332203014,-0.788402848423189,0,NaN
207280074,55,b_2,blue,blue,Y,no_color_change,no_figure_change,not_first,update,correct,15,1022,3026,3150,0,1.89366592066648,9.76412414821277,2275,-4.79613433011114,600,-1.32235247872181,-0.259101509787612,0,NaN
207280074,56,b_2,red,blue,X,color_change,figure_change,not_first,no_update,correct,5,1012,3018,2850,0,-4.99820297329723,1.75873008035748,1650,-16.5923987508178,2325,-0.229592781405458,-8.57442632663893,0,NaN
207280074,58,b_3,blue,blue,Y,no_color_change,figure_change,not_first,update,correct,7,1014,3019,2500,0,-5.77147014238583,3.37770325366655,100,-14.6232385065062,2375,-1.55091821616841,-8.2185802391152,0,NaN
207280074,59,b_3,blue,blue,Y,no_color_change,no_figure_change,not_first,update,correct,17,1025,3031,2950,0,0.0585965544169101,8.78870272327065,975,-10.9994229397816,2025,0.76076192108134,0.932116047061911,0,NaN
207280074,60,b_3,blue,blue,X,no_color_change,figure_change,not_first,update,correct,5,1011,3017,3150,0,-0.7887169626219,4.49187808584242,1800,-7.57552664274201,2275,0.941744837492436,-3.01321398715089,2,175
207280074,61,b_3,blue,blue,Y,no_color_change,figure_change,not_first,update,correct,15,1023,3028,3000,0,-2.6264038156359,3.31296845946851,350,-10.3331908947071,825,-3.79687481954566,-5.94869899638513,0,NaN
207280074,62,b_3,red,blue,X,color_change,figure_change,not_first,no_update,correct,3,1009,3014,2650,0,2.29857003228369,8.4110587953634,550,-8.37614468407718,1675,-0.318217185723128,1.36564052431019,1,150
207280074,63,b_3,red,blue,Y,no_color_change,figure_change,not_first,no_update,correct,14,1021,3026,2500,0,0.938604154751265,8.496944006557,1575,-7.7892005641834,1750,-0.290388517208342,-1.17764486112893,1,125
207280074,64,b_3,blue,blue,X,color_change,figure_change,not_first,update,correct,23,1030,3035,2650,0,1.56801830574123,8.92788894389481,1500,-7.71641909725874,675,0.569439563737475,1.33766996616708,1,125
207280074,65,b_3,red,blue,X,color_change,no_figure_change,not_first,no_update,correct,116,1125,3129,3175,0,2.30944541120242,8.66152771492099,2150,-5.11525747230476,675,1.89242635918222,3.96169890399638,1,125
207280074,66,b_3,blue,blue,X,color_change,no_figure_change,not_first,update,correct,16,1023,3027,2650,0,2.46310863359237,12.0676656545069,2400,-9.54983153778961,150,0.0660330269123364,1.87466203568903,0,NaN
207280074,67,b_3,blue,blue,X,no_color_change,no_figure_change,not_first,update,correct,11,1018,3024,2525,0,-3.7581858296144,1.78383392669107,1475,-15.5623527052098,325,-2.50288321716893,0.518226946798379,1,175
207280074,68,b_3,blue,blue,X,no_color_change,no_figure_change,not_first,update,correct,39,1045,3051,2175,0,29.135081157119,53.7284681597437,2150,3.94627896680961,75,16.9682898556602,22.7750009293712,1,125
207280074,70,b_0,red,blue,X,color_change,figure_change,not_first,no_update,correct,7,1014,3020,1750,0,1.14085211342784,5.85808918608487,600,-7.81046451988855,1525,0.735150702282027,-7.08133372181781,1,200
207280074,71,b_0,red,blue,Y,no_color_change,figure_change,not_first,no_update,correct,65,1072,3077,1825,0,-0.360011292789931,7.6205578308933,1075,-10.1180706707,1850,-0.570153067665913,-10.1180706707,0,NaN
207280074,72,b_0,red,blue,Y,no_color_change,no_figure_change,not_first,no_update,correct,5,1011,3016,2350,0,3.92691079965002,13.0767780680257,675,-10.4772035655616,1550,3.15676083268252,-4.48442086553739,0,NaN
207280074,74,b_1,red,blue,Y,color_change,no_figure_change,not_first,no_update,correct,22,1028,3034,2300,0,-5.23667476801316,7.42617362173543,225,-13.9171885222918,1800,1.65411425563629,-5.04523295339948,0,NaN
207280074,75,b_1,blue,blue,X,color_change,figure_change,not_first,update,correct,30,1038,3044,2175,0,2.35206767372758,9.96050989825189,1150,-5.47999125300677,1475,4.31792747713561,3.98528447022807,0,NaN
207280074,76,b_1,blue,blue,Y,no_color_change,figure_change,not_first,update,correct,20,1027,3032,2525,0,4.59057822694906,8.76239150769509,1400,-0.542179400693655,50,-0.542179400693655,3.46999831979556,0,NaN
207280074,78,b_2,red,blue,X,color_change,figure_change,not_first,no_update,correct,12,1019,3025,3050,0,-0.617523177964122,7.0563237424453,700,-13.1968283190733,2400,-1.17617734957837,-7.73350180523234,0,NaN
207280074,79,b_2,red,blue,Y,no_color_change,figure_change,not_first,no_update,correct,22,1028,3034,2825,0,-2.11459595357128,6.28894194374891,525,-12.4764649934975,2450,-0.927085153050328,-3.40942176672684,0,NaN
207280074,80,b_2,red,blue,X,no_color_change,figure_change,not_first,no_update,correct,10,1018,3024,2575,0,-3.77464352961957,2.86244185818303,1250,-10.5653739720919,1800,-1.94468431691952,-9.32746845131788,1,150
207280074,81,b_2,red,blue,Y,no_color_change,figure_change,not_first,no_update,correct,21,1029,3033,1750,0,2.16308806746743,14.9340804851369,350,-11.8572881569677,1700,1.80911989428752,-7.22852920937704,1,125
207280074,82,b_2,red,blue,Y,no_color_change,no_figure_change,not_first,no_update,correct,22,1029,3034,2525,0,17.7392814062701,30.6286524025343,2000,-0.245347761421257,175,2.25175373877197,21.0536485964234,0,NaN
207280074,83,b_2,red,blue,Y,no_color_change,no_figure_change,not_first,no_update,correct,21,1028,3034,2750,0,-5.12302071675131,3.2666251841504,875,-15.7364663290679,1425,1.45180608809214,1.39253363895946,0,NaN
207280074,84,b_2,blue,blue,Y,color_change,no_figure_change,not_first,update,correct,43,1050,0,375,0,-5.2468763488058,3.88647822840045,300,-13.480039243058,175,-7.08010171956833,0.703592887439783,0,NaN
207280074,85,b_2,blue,blue,X,no_color_change,figure_change,not_first,update,correct,885,1891,3896,2000,0,3.15318074828058,7.69160129723878,625,-2.63797661683608,1200,-0.88085606159467,0.924838449306677,0,NaN
207280074,86,b_2,blue,blue,Y,no_color_change,figure_change,not_first,update,correct,4,1011,3017,2925,0,2.88365062645997,9.54167882886671,1100,-7.07073205725057,1675,0.0999361793706015,-1.95419756690035,0,NaN
207280074,87,b_2,blue,blue,X,no_color_change,figure_change,not_first,update,correct,14,1022,3026,2950,0,8.25628761085697,15.9675048159789,2050,-0.765740646862014,150,0.572594545270206,8.2735982966643,0,NaN
207280074,88,b_2,blue,blue,Y,no_color_change,figure_change,not_first,update,correct,176,1182,3187,2700,0,-7.41676757972535,-0.679612090657258,75,-14.2176753548808,2350,-0.886125304329298,-10.703550395118,0,NaN
207280074,90,b_3,blue,blue,X,no_color_change,figure_change,not_first,update,correct,17,1025,3030,2750,0,0.828617120653004,6.29354183683017,1700,-6.22956457530984,1750,-1.21657946709217,-5.73443620354378,0,NaN
207280074,91,b_3,red,blue,X,color_change,no_figure_change,not_first,no_update,correct,5,1012,3018,1700,0,-3.63873276697071,6.53042048390887,1375,-15.3078673708831,925,5.02448844534366,-4.21241674054878,0,NaN
207280074,92,b_3,red,blue,Y,no_color_change,figure_change,not_first,no_update,correct,15,1021,0,2325,0,13.0424239234681,23.3232144662457,1900,1.48859373249577,50,1.48859373249577,15.874234595596,0,NaN
207280074,93,b_3,red,blue,Y,no_color_change,no_figure_change,not_first,no_update,correct,525,1533,3538,2300,0,8.47175010498117,18.7761495054391,850,-8.4105153493872,2125,14.937908707085,-3.15784705683218,0,NaN
207280074,94,b_3,blue,blue,X,color_change,figure_change,not_first,update,correct,21,1030,3033,3200,0,2.50017239763801,6.95448540609286,2050,-0.920053218074429,1000,0.86843074728219,6.02715811258861,0,NaN
207280074,95,b_3,blue,blue,Y,no_color_change,figure_change,not_first,update,correct,13,1021,3025,2525,0,-0.286608213934305,3.21939318785297,1450,-6.62614063700448,425,0.586324486797594,-2.50996302336762,1,175
207280074,96,b_3,red,blue,Y,color_change,no_figure_change,not_first,no_update,correct,22,1029,3033,1975,0,-1.58818800154659,5.19091818841179,225,-9.36229010016434,1725,2.19884136208812,-5.42870520836202,0,NaN
207280074,97,b_3,red,blue,Y,no_color_change,no_figure_change,not_first,no_update,correct,11,1019,3024,2550,0,-3.16742687952485,5.22400732858316,2500,-10.8261638072276,1775,-0.975868774351866,4.16059738476736,0,NaN
207280074,98,b_3,blue,blue,X,color_change,figure_change,not_first,update,correct,21,1028,3034,2375,0,-3.97731722932141,2.35797851691892,1500,-10.6615775489948,1000,0.00325430789007441,-5.13343824602103,0,NaN
207280074,100,b_0,blue,blue,X,no_color_change,no_figure_change,not_first,update,correct,16,1024,3028,2725,0,-9.49516485467703,0.682845765251329,125,-17.0364493788092,2400,-2.50266287749879,-11.7053907247888,0,NaN
207280074,101,b_0,red,blue,Y,color_change,figure_change,not_first,no_update,correct,15,1023,3027,2325,0,-3.58124811849805,5.72015108807625,300,-12.7273670506451,1800,-4.16455655550807,-5.77598154136518,0,NaN
207280074,102,b_0,red,blue,Y,no_color_change,no_figure_change,not_first,no_update,correct,5,1012,3018,2725,0,-0.0704104364961172,7.22215707437783,1450,-9.25492936511165,1950,-6.51999626662965,2.34173261888751,1,125
207280074,103,b_0,blue,blue,Y,color_change,no_figure_change,not_first,update,correct,16,1022,3027,2975,0,-0.333838945165081,2.68317513760324,1625,-5.37834133128936,650,-1.07425755377754,1.6608788268515,2,162.5
207280074,105,b_1,blue,blue,Y,no_color_change,no_figure_change,not_first,update,correct,24,1031,3038,2425,0,4.71184861460699,11.5763193975484,1600,-3.07467206908548,775,0.588331593918184,8.34484416886652,0,NaN
207280074,106,b_1,red,blue,Y,color_change,no_figure_change,not_first,no_update,correct,37,1044,3050,2525,0,0.169798825928897,4.25824965451589,775,-5.58523052584864,2400,-0.963906396227159,-2.8799922740327,0,NaN
207280074,107,b_1,blue,blue,X,color_change,figure_change,not_first,update,correct,22,1029,3034,2700,0,1.97422619836715,10.447081271242,1675,-6.15991890763819,2150,2.17041321328483,-1.01675511299267,0,NaN
207280074,108,b_1,red,blue,Y,color_change,figure_change,not_first,no_update,correct,11,1017,3023,2200,0,0.681971007428208,7.28396762364386,1025,-10.9191826110087,1925,0.642207064277713,-7.01273964013605,1,150
207280074,109,b_1,red,blue,X,no_color_change,figure_change,not_first,no_update,correct,22,1028,3033,2675,0,5.92181022591841,16.1616343729315,900,-3.97363615524688,350,-1.39443000677383,13.1664687747097,0,NaN
207280074,110,b_1,blue,blue,Y,color_change,figure_change,not_first,update,correct,9,1015,3021,2725,0,-0.187640223691589,7.64432396873127,1725,-5.77715777367725,875,-0.569434368081815,5.59216741976947,0,NaN
207280074,111,b_1,red,blue,X,color_change,figure_change,not_first,no_update,correct,56,1062,3067,2350,0,-4.44148311983184,4.48200567543914,100,-11.2158434922515,1850,-1.42924707608802,-11.0887649289686,0,NaN
207280074,112,b_1,red,blue,Y,no_color_change,figure_change,not_first,no_update,correct,22,1030,3035,2975,0,3.1652914358371,16.9775266380407,2250,-9.44308603689568,1150,-0.374721692111962,15.0654023536896,0,NaN
207280074,113,b_1,red,blue,X,no_color_change,figure_change,not_first,no_update,correct,15,1022,3027,2650,0,-8.54158966483597,1.91420911528151,2550,-20.7292225201072,975,-0.76697944593387,1.89722966934764,0,NaN
207280074,114,b_1,red,blue,X,no_color_change,no_figure_change,not_first,no_update,correct,22,1029,3034,2875,0,-7.01809216833615,-0.116128073961875,150,-13.6306452084792,1100,-0.156412812797498,-6.59882026479902,0,NaN
207280074,115,b_1,blue,blue,Y,color_change,figure_change,not_first,update,correct,63,1071,3076,2750,0,-7.87536211129966,5.44296853301749,1850,-22.8679047796118,900,-5.9201722432247,1.66918007726156,0,NaN
207280074,116,b_1,red,blue,X,color_change,figure_change,not_first,no_update,correct,3,1011,3016,2750,0,NaN,NaN,25,NaN,25,NaN,NaN,0,NaN
207280074,117,b_1,red,blue,Y,no_color_change,figure_change,not_first,no_update,correct,15,1022,3028,2475,0,-6.13861418636391,5.9311641184926,425,-19.8755063679222,1200,-9.8373591467889,-13.8646803976559,0,NaN
207280074,118,b_1,red,blue,Y,no_color_change,no_figure_change,not_first,no_update,correct,30,1037,3043,2100,0,4.15794567826425,24.6338595001932,2125,-12.8792899708667,1600,-1.14277011763312,24.6338595001932,0,NaN
207280074,120,b_2,blue,blue,X,no_color_change,figure_change,not_first,update,correct,22,1029,3034,2275,0,-5.75372229908151,2.92256119834698,1400,-20.6823202566466,2250,0.349385345198186,-8.63150779904628,0,NaN
207280074,121,b_2,blue,blue,Y,no_color_change,figure_change,not_first,update,correct,13,1021,3026,3025,0,13.7261676253117,27.89614260009,2100,-3.53548133153396,450,3.55235042735043,25.5884502923977,0,NaN
207280074,122,b_2,red,blue,X,color_change,figure_change,not_first,no_update,correct,21,1028,3034,3100,0,-3.69816641883033,4.98099544968068,950,-19.1605211204605,2525,-0.853858169614739,-14.4469710985637,1,175
207280074,123,b_2,blue,blue,X,color_change,no_figure_change,not_first,update,correct,12,1018,3024,2825,0,-1.96053174786749,9.16655669810076,1925,-12.71887974176,1225,-0.634434034086865,1.11178220133384,0,NaN
207280074,124,b_2,red,blue,Y,color_change,figure_change,not_first,no_update,correct,88,1095,3099,3100,0,-1.73037105767124,4.72427111917199,325,-9.02394425790615,2500,-0.199679819471626,-8.43282271054839,1,225
207280074,125,b_2,red,blue,X,no_color_change,figure_change,not_first,no_update,correct,10,1016,3022,2975,0,-1.54328287183237,4.76345417154943,625,-12.7537233947904,2325,2.29923917934066,-4.52501455295113,1,250
207280074,126,b_2,blue,blue,Y,color_change,figure_change,not_first,update,correct,25,1034,3038,3150,0,2.06644266080783,9.56945451443681,50,-4.53096344948182,300,9.56945451443681,4.03009979954791,2,150
207280074,127,b_2,red,blue,X,color_change,figure_change,not_first,no_update,correct,7,1014,3021,2825,0,3.0033542825179,10.3879245521969,2575,-5.63325655577454,1475,3.4995791745489,1.81759657218542,1,150
207280074,129,b_3,blue,blue,Y,no_color_change,no_figure_change,not_first,update,correct,156,1163,3170,3025,0,-3.33743126212585,3.45397540710215,1500,-13.1895906372066,750,1.38554321051708,-7.44803595296861,1,150
207280074,130,b_3,red,blue,Y,color_change,no_figure_change,not_first,no_update,correct,10,1017,3021,3325,0,-0.0529520485630668,4.42206492965009,1975,-6.98170137492568,2525,1.01990718696571,-0.986354362237279,0,NaN
207280074,131,b_3,blue,blue,X,color_change,figure_change,not_first,update,correct,22,1030,3036,3100,0,5.41692735952947,15.0127875919108,475,-3.56118965855067,575,0.379244913322808,-1.54997989048046,0,NaN
207280074,132,b_3,red,blue,Y,color_change,figure_change,not_first,no_update,correct,8,1017,3023,3250,0,0.706163285813018,5.95031704942173,1350,-3.89080200441731,1700,-0.00047498040704852,0.194029496283292,1,150
207280074,133,b_3,red,blue,X,no_color_change,figure_change,not_first,no_update,correct,19,1027,3031,3375,0,1.17155634084114,6.98932804983797,1175,-6.70278885234148,2525,1.00979029109283,-4.21185976776519,0,NaN
207280074,135,b_0,blue,red,X,color_change,no_figure_change,not_first,no_update,correct,23,528,1530,2325,0,2.97652820621049,13.9367119763108,2275,-9.24098522467477,1050,-0.0418672276029355,12.3442348827591,1,200
207280074,136,b_0,red,red,X,color_change,no_figure_change,not_first,update,correct,12,515,1518,2850,0,-2.40617906809099,1.55365614356501,800,-9.57272210884125,2525,-3.7110379186396,-8.3619030940658,1,175
207280074,137,b_0,red,red,Y,no_color_change,figure_change,not_first,update,correct,68,572,1575,3025,0,1.67446161633309,10.459199981059,2075,-8.01557894238395,850,0.969303801214593,5.19953121115621,0,NaN
207280074,138,b_0,blue,red,X,color_change,figure_change,not_first,no_update,correct,6,509,1511,3325,0,-6.91845610834506,1.18275789951454,2600,-16.143443881297,1275,-0.0731992755719091,1.18275789951454,0,NaN
207280074,139,b_0,red,red,Y,color_change,figure_change,not_first,update,correct,12,515,1518,1900,0,7.26436922651831,13.394674249829,575,1.00013567732057,1800,4.10437739338947,2.88521975572544,0,NaN
207280074,141,b_1,blue,red,Y,color_change,figure_change,not_first,no_update,correct,6,510,1512,2325,0,1.30645321368991,10.8922498495831,1100,-11.1840457370687,275,-3.04939613744878,4.00999852810924,0,NaN
207280074,142,b_1,blue,red,X,no_color_change,figure_change,not_first,no_update,correct,12,515,1518,3125,0,0.747375960151768,5.84042120306871,1600,-8.99125636419578,2325,-0.0570668625135227,-3.18259411069978,1,225
207280074,143,b_1,blue,red,Y,no_color_change,figure_change,not_first,no_update,correct,5,508,1511,2600,0,-2.71959235015047,3.65619074978454,1050,-15.5304797471991,2550,0.755415110600396,-14.6534903763286,1,150
207280074,144,b_1,blue,red,X,no_color_change,figure_change,not_first,no_update,correct,61,564,1567,2350,0,9.71982196689261,16.5613344809213,900,-4.09606951104553,100,-1.71427790756452,11.1895296255311,1,250
207280074,145,b_1,red,red,X,color_change,no_figure_change,not_first,update,correct,6,510,1513,3225,0,-0.601874933242792,8.01151438430992,1425,-11.6991891871806,375,0.67109438673765,0.0686205777505791,1,125
207280074,146,b_1,red,red,X,no_color_change,no_figure_change,not_first,update,correct,10,513,0,1925,0,-2.72102076955592,1.87647034963901,550,-12.7081305264866,150,-1.61814512857954,-5.34573497201265,0,NaN
207280074,147,b_1,blue,red,Y,color_change,figure_change,not_first,no_update,correct,691,1194,2197,2850,0,6.97717596774156,17.4301816777847,1725,-6.27828660903884,1300,-3.76788357178096,9.48338731472941,0,NaN
207280074,148,b_1,red,red,Y,color_change,no_figure_change,not_first,update,correct,8,511,1513,2450,0,-4.45408391386845,4.61217817542648,650,-16.0423177283556,1400,0.739519336088591,-15.6493741527819,0,NaN
207280074,149,b_1,blue,red,Y,color_change,no_figure_change,not_first,no_update,correct,2,505,0,975,0,-2.51378861237719,7.50028737734212,900,-12.8379296291265,750,-0.573709675733852,-11.012299750243,1,150
207280074,150,b_1,blue,red,Y,no_color_change,no_figure_change,not_first,no_update,correct,16,520,1523,1525,0,6.60449491070378,17.4522035164926,575,-7.60254706993544,150,-7.60254706993544,-6.32875262076267,1,125
207280074,152,b_2,red,red,X,no_color_change,no_figure_change,not_first,update,correct,5,508,1511,3075,0,2.00266711874915,9.31035622652641,1300,-8.19684636920519,1975,1.26709742384828,-1.38762806380495,0,NaN
207280074,153,b_2,blue,red,Y,color_change,figure_change,not_first,no_update,correct,11,515,1518,1825,0,8.51299715000244,15.4603819804299,1775,-2.6784392371159,350,-0.58145012584626,15.4603819804299,1,175
207280074,154,b_2,blue,red,Y,no_color_change,no_figure_change,not_first,no_update,correct,3,506,1509,2775,0,1.53719954886689,10.1625034822175,525,-9.31446745287398,2075,-3.85435045036679,2.13993871297242,0,NaN
207280074,155,b_2,blue,red,X,no_color_change,figure_change,not_first,no_update,correct,11,515,1517,3100,0,-7.76828385259901,1.11091003687199,50,-13.9575180401294,2250,1.11091003687199,-4.78046463229805,0,NaN
207280074,156,b_2,red,red,X,color_change,no_figure_change,not_first,update,correct,4,508,1511,2325,0,-0.357521335007406,7.77011729305737,825,-7.58826193015001,1500,4.25570762916112,-2.52747306252222,0,NaN
207280074,157,b_2,red,red,X,no_color_change,no_figure_change,not_first,update,correct,59,563,1565,2250,0,-2.96718761387082,8.49397756886279,300,-17.164871120225,1825,-0.409118209529836,-0.691580658861255,1,125
207280074,158,b_2,red,red,Y,no_color_change,figure_change,not_first,update,correct,3,507,1509,2400,0,1.76460045368944,12.8007190549563,625,-9.64252696456086,925,0.0796096558808443,5.2336928608115,1,225
207280074,159,b_2,red,red,X,no_color_change,figure_change,not_first,update,correct,8,511,1514,2750,0,-1.07726196473612,9.27776822769579,1175,-12.7600009822941,850,3.64627587731147,-2.52425038677832,0,NaN
207280074,160,b_2,red,red,Y,no_color_change,figure_change,not_first,update,correct,70,573,1575,1925,0,14.6492241064494,25.199129723641,1050,-0.906074961038158,700,2.7780949588779,1.49304859043005,0,NaN
207280074,161,b_2,red,red,Y,no_color_change,no_figure_change,not_first,update,correct,43,546,1549,2675,0,4.37389700873803,17.1496592449034,1175,-13.469356635686,200,-13.469356635686,9.28290174300352,1,175
207280074,163,b_3,blue,red,Y,color_change,no_figure_change,not_first,no_update,correct,7,510,0,2375,0,0.320051140040278,5.23210834096753,900,-8.07055720246882,2025,0.592888773181969,-0.931577098872921,0,NaN
207280074,164,b_3,red,red,X,color_change,figure_change,not_first,update,correct,344,848,82,1250,0,3.52453845431359,12.2865836410104,250,-6.45297768244777,900,11.6175244317301,3.35538113007053,0,NaN
207280074,165,b_3,red,red,X,no_color_change,no_figure_change,not_first,update,correct,913,1416,2418,2950,0,8.28046831986221,25.2548871525256,125,-6.15916770751639,950,21.056147790978,4.38657642741647,0,NaN
207280074,166,b_3,red,red,Y,no_color_change,figure_change,not_first,update,correct,11,514,1516,2850,0,-2.47613340619211,3.94501396002998,1950,-11.2798898979514,975,0.280361034457954,-1.95161915460008,0,NaN
207280074,167,b_3,blue,red,X,color_change,figure_change,not_first,no_update,correct,11,514,1518,2525,0,-13.2322133915267,3.86565401761936,50,-28.5724322841945,2075,3.86565401761936,-12.0579576128861,0,NaN
207280074,168,b_3,red,red,X,color_change,no_figure_change,not_first,update,correct,5,508,1511,3175,0,7.19097802515362,14.4029328255832,1925,-2.49982561158663,2325,1.99345332978528,2.8677205755076,0,NaN
207280074,169,b_3,red,red,X,no_color_change,no_figure_change,not_first,update,correct,11,514,1516,3000,0,-9.9899032691469,0.733277566646237,75,-22.8721086564966,1100,0.593938518392505,-10.904329063842,0,NaN
207280074,170,b_3,red,red,X,no_color_change,no_figure_change,not_first,update,correct,6,510,1513,2625,0,5.98609563307833,15.6691576178958,1775,-5.94984331113235,2425,8.79434890832415,-0.158720270420332,0,NaN
207280074,171,b_3,blue,red,Y,color_change,figure_change,not_first,no_update,correct,35,538,1540,2500,0,8.36642832897776,16.4419890112619,1050,-2.72510769349644,250,-0.606008758979058,11.2169572068405,1,125
207280074,172,b_3,red,red,X,color_change,figure_change,not_first,update,correct,4,507,1509,3000,0,1.81367065959321,9.68262134953119,2400,-9.67059070466303,2450,-2.07464631183943,-8.00517829671666,1,200
207280074,173,b_3,blue,red,Y,color_change,figure_change,not_first,no_update,correct,44,548,1550,2200,0,8.0145204299607,20.84198668419,2200,-6.4666888115423,1625,3.93552952730316,17.6080645860112,0,NaN
207280074,174,b_3,red,red,X,color_change,figure_change,not_first,update,correct,2,506,1509,1950,0,6.36892028192826,13.0854256932811,1650,-0.835129377005856,1575,0.450351249229826,10.2806282152481,0,NaN
207280074,175,b_3,red,red,Y,no_color_change,figure_change,not_first,update,correct,7,512,1514,2750,0,-11.0627767116268,-1.60528444084999,50,-21.0068966130165,675,-1.60528444084999,-11.6653631831068,1,175
207280074,176,b_3,blue,red,X,color_change,figure_change,not_first,no_update,correct,1,504,1508,2750,0,-6.3329459228012,2.65809658949959,175,-18.5545809063576,775,-0.610506365539763,-18.5498675292974,1,125
207280074,178,b_0,blue,red,Y,color_change,figure_change,not_first,no_update,correct,23,1031,3036,2250,0,-4.34450407687552,0.931924872104133,375,-14.052628983155,1450,-1.14758802509046,-2.3521182963956,0,NaN
207280074,179,b_0,red,red,Y,color_change,no_figure_change,not_first,update,correct,12,1019,3025,1625,0,-2.96103469785353,3.43025110513604,1100,-12.5687007246047,425,-1.47062844642939,-10.3771134302511,0,NaN
207280074,180,b_0,red,red,X,no_color_change,figure_change,not_first,update,correct,21,1029,3034,1975,0,7.7879778300832,14.1541866198479,1125,-1.68500344307364,1900,0.0199750837113726,0.974048160978143,0,NaN
207280074,181,b_0,red,red,X,no_color_change,no_figure_change,not_first,update,correct,21,1028,3034,2425,0,2.43993282664952,11.4872152040188,900,-9.96275919780246,2025,0.257021307560166,-1.87269518936155,0,NaN
207280074,183,b_1,blue,red,Y,color_change,figure_change,not_first,no_update,correct,9,1017,3023,2250,0,-4.86820408920484,1.91388611437405,1550,-13.5591150749363,900,-0.986126340416277,-5.32991762743571,0,NaN
207280074,184,b_1,blue,red,Y,no_color_change,no_figure_change,not_first,no_update,correct,23,1029,3036,1175,0,-3.31199834974942,3.03521115757788,150,-10.7052647476994,750,1.36162655653523,-6.69459880320603,0,NaN
207280074,185,b_1,blue,red,X,no_color_change,figure_change,not_first,no_update,correct,309,1317,3323,1500,0,-0.442850238738586,6.07166120488986,950,-11.6704453073322,1400,5.06733386183811,-10.1950081547946,1,225
207280074,186,b_1,blue,red,Y,no_color_change,figure_change,not_first,no_update,correct,22,1029,3034,1950,0,8.08209948270371,17.9005035246727,1275,-4.0351795904666,100,-2.56542463914064,7.88452500839207,0,NaN
207280074,187,b_1,blue,red,X,no_color_change,figure_change,not_first,no_update,correct,7,1014,3019,1750,0,-3.15333569958714,7.55965534917603,1700,-18.5108788694119,400,-0.989902309690294,6.84862294189352,0,NaN
207280074,188,b_1,red,red,X,color_change,no_figure_change,not_first,update,correct,18,1025,3030,2100,0,-1.78533936731417,5.01157836235643,600,-6.43710633567989,850,0.975129677658387,-4.11541311596888,0,NaN
207280074,190,b_2,blue,red,X,color_change,no_figure_change,not_first,no_update,correct,17,1023,3029,2175,0,3.23108405981891,8.7845713409335,1225,-3.42748325750217,1950,-2.36005316701601,-0.531670160012268,0,NaN
207280074,191,b_2,blue,red,X,no_color_change,no_figure_change,not_first,no_update,correct,5,1012,3018,1050,0,-2.85789790926197,8.46645453419694,400,-13.3605767418822,350,-0.688892119332593,7.4095610365417,0,NaN
207280074,192,b_2,blue,red,X,no_color_change,no_figure_change,not_first,no_update,correct,14,1021,3027,2200,0,1.41574849295744,8.64217763722264,2200,-8.29238313509084,600,1.89237289220644,6.61203794988668,0,NaN
207280074,193,b_2,red,red,X,color_change,no_figure_change,not_first,update,correct,4,1010,3016,2225,0,-3.55369211373341,1.62521188309536,1575,-12.2440416447135,1925,0.421501336264129,-1.15674461739457,0,NaN
207280074,194,b_2,blue,red,X,color_change,no_figure_change,not_first,no_update,correct,22,1029,3036,2600,0,1.74992180547404,8.38493980885323,1200,-4.86514584096305,2000,-2.52625609885762,-0.829799047810312,0,NaN
207280074,195,b_2,blue,red,Y,no_color_change,figure_change,not_first,no_update,correct,25,1032,3038,1725,0,0.730774481317,6.36282154065182,900,-8.77811596156529,1625,-2.16035587340102,-8.39334321870558,0,NaN
207280074,197,b_3,blue,red,Y,color_change,figure_change,not_first,no_update,correct,26,1034,3039,2700,0,1.72286359873752,10.533130066737,2075,-8.47270849445177,2500,0.322442757145012,0.674041257847961,0,NaN
207280074,198,b_3,blue,red,X,no_color_change,figure_change,not_first,no_update,correct,15,1021,3026,2525,0,0.585069098233159,7.86004865791888,1325,-8.20080365333227,550,2.66073066645396,0.72812387827544,0,NaN
207280074,199,b_3,red,red,Y,color_change,figure_change,not_first,update,correct,22,1030,3034,1875,0,1.7036161804222,13.6689648675249,1675,-9.22304944230822,725,-2.45686844721452,2.59570258752129,0,NaN
207280074,200,b_3,blue,red,X,color_change,figure_change,not_first,no_update,correct,113,1120,3126,2225,0,-3.17874134843033,4.52646454570285,1675,-15.1210706948354,2225,-2.19839205766742,-15.1210706948354,0,NaN
207280074,201,b_3,blue,red,X,no_color_change,no_figure_change,not_first,no_update,correct,22,1030,3036,2525,0,9.90220535798383,15.6589835708231,1125,-1.06675278192655,2125,1.40260229550989,12.6955421897496,0,NaN
207280074,202,b_3,blue,red,X,no_color_change,no_figure_change,not_first,no_update,correct,12,1018,3025,1875,0,-6.51799078009938,-0.579057654313601,125,-12.1297970424475,600,-3.35269113332934,-9.38490091600312,1,125
207280074,203,b_3,red,red,Y,color_change,figure_change,not_first,update,correct,39,1046,3051,2300,0,2.91448659335769,12.1795916677663,1075,-6.03520319586855,1700,-2.42562076486614,10.3159387217043,0,NaN
207280074,204,b_3,red,red,X,no_color_change,figure_change,not_first,update,correct,22,1029,3033,2475,0,2.87430838480692,11.5344313638022,1825,-6.85839217298975,2450,0.794132065695962,-6.29032520381871,1,225
207280074,205,b_3,blue,red,X,color_change,no_figure_change,not_first,no_update,correct,132,1139,3145,1975,0,3.65067618913017,10.3850312395249,1375,-3.35355480337624,625,2.3033321319747,1.59663081913335,0,NaN
207280074,206,b_3,red,red,X,color_change,no_figure_change,not_first,update,correct,90,1098,3103,2150,0,2.06615553585891,8.00264919483762,2100,-3.86746920691633,1600,0.673463898376482,0.833329104095085,0,NaN
207280074,207,b_3,red,red,Y,no_color_change,figure_change,not_first,update,correct,20,1027,3034,2225,0,2.95085883063028,9.0140710034389,625,-5.33673775757102,775,-1.11568903006709,-3.96420308467076,1,175
207280074,208,b_3,red,red,X,no_color_change,figure_change,not_first,update,correct,6,1013,3018,2850,0,5.2896886616741,11.2044379213916,1850,-0.675994856780534,200,-0.675994856780534,3.90414817322242,1,175
207280074,209,b_3,red,red,Y,no_color_change,figure_change,not_first,update,correct,15,1023,3030,2900,0,-3.25439918130927,1.73357771849,350,-15.6748545129871,2350,1.00254528556029,-11.4349607591981,1,125
207280074,210,b_3,red,red,Y,no_color_change,no_figure_change,not_first,update,correct,5,1012,3017,2275,0,1.48206636209834,10.4090453095182,1525,-8.71543832389227,2125,-0.218740807229011,-6.49584769605588,1,150
208278119,2,b_0,red,blue,Y,color_change,no_figure_change,not_first,no_update,correct,17,1024,3029,2825,0,-0.022662620496918,10.7084239524431,2625,-7.31835097385337,1200,0,10.7084239524431,1,225
208278119,3,b_0,blue,blue,X,color_change,figure_change,not_first,update,correct,6,1014,3018,2300,0,-7.57175694489365,6.27798331032508,175,-20.4484753570109,1700,0,-12.4578648458035,1,125
208278119,4,b_0,blue,blue,Y,no_color_change,figure_change,not_first,update,correct,16,1022,3028,3275,0,-4.76156927619588,1.05748415946402,1900,-11.0083824482121,200,0,-2.17797493956105,1,150
208278119,5,b_0,blue,blue,Y,no_color_change,no_figure_change,not_first,update,correct,5,1012,3016,1925,0,3.09571179363493,8.08903903303055,1000,-0.962293835548635,50,-0.962293835548635,3.57390328199274,1,225
208278119,6,b_0,red,blue,Y,color_change,no_figure_change,not_first,no_update,correct,17,1024,3028,2300,0,-1.13288720005175,3.46826839357865,1650,-7.33817221774177,1175,-1.79692734852406,-7.00374351505231,2,275
208278119,7,b_0,blue,blue,X,color_change,figure_change,not_first,update,correct,2,1010,3015,3450,0,4.43528155425437,16.5067170514891,2875,-6.83149939238568,2000,2.55863894391636,16.5067170514891,0,NaN
208278119,8,b_0,blue,blue,X,no_color_change,no_figure_change,not_first,update,correct,24,1030,3035,3225,0,6.19057042003106,12.106676368353,2525,1.03034281488628,75,1.03034281488628,6.00351158863795,0,NaN
208278119,10,b_1,blue,blue,X,no_color_change,figure_change,not_first,update,correct,5,1013,3018,3200,0,-5.22220003671579,0.606876343733802,650,-11.2489503242828,2050,-3.4772803522543,-8.70491357421778,0,NaN
208278119,11,b_1,red,blue,X,color_change,no_figure_change,not_first,no_update,correct,14,1021,3026,2875,0,-2.49435593669225,1.91661215983937,1575,-7.70751889992546,1350,0.05584686225383,-3.168929152714,0,NaN
208278119,12,b_1,blue,blue,Y,color_change,figure_change,not_first,update,correct,4,1012,3017,2350,0,-1.89461580712623,5.08601825251894,300,-8.63870125797968,175,-0.604589848278422,-3.25833739999868,0,NaN
208278119,13,b_1,blue,blue,X,no_color_change,figure_change,not_first,update,correct,15,1023,3028,3075,0,14.8486514200132,27.3007597745895,1625,-0.600895956275139,50,-0.600895956275139,11.9622084359281,0,NaN
208278119,14,b_1,red,blue,X,color_change,no_figure_change,not_first,no_update,correct,140,1147,3153,3125,0,3.72346333124154,8.70541052670309,2150,-4.11824706211814,2825,-1.61340765678752,-2.77650021565249,1,275
208278119,15,b_1,blue,blue,X,color_change,no_figure_change,not_first,update,correct,14,1021,3026,3075,0,-3.61982010527623,4.3233230310779,2100,-9.66747541049622,700,-2.02534958874872,-7.85978194118654,0,NaN
208278119,16,b_1,red,blue,Y,color_change,figure_change,not_first,no_update,correct,23,1030,3035,3175,0,-3.81177954847577,0.579848601037597,200,-7.38808943420314,1025,0.0751853930418207,-1.82479875590666,1,175
208278119,17,b_1,blue,blue,X,color_change,figure_change,not_first,update,correct,12,1019,3024,2875,0,0.0942598358329121,7.87165907402877,575,-8.51543542511058,2325,0.640911204705887,4.04404391167415,0,NaN
208278119,19,b_2,red,blue,Y,color_change,figure_change,not_first,no_update,correct,6,1016,3021,2525,0,6.26747423493223,14.2931110363217,2475,-2.51849271705849,100,-0.296071753860346,13.0841121495327,0,NaN
208278119,20,b_2,blue,blue,Y,color_change,no_figure_change,not_first,update,correct,17,1023,3029,2875,0,0.718299219915201,12.2101448515518,500,-8.90835994991957,2650,0.370150555854991,-3.31185131901525,0,NaN
208278119,21,b_2,red,blue,X,color_change,figure_change,not_first,no_update,correct,6,1014,3018,2925,0,1.28809262250036,11.8541499679168,2000,-5.6846685491694,2675,2.13628772477148,-3.1329195284093,1,275
208278119,23,b_3,blue,blue,Y,no_color_change,no_figure_change,not_first,update,correct,10,1017,3021,2850,0,0.764065434477186,10.3071704675568,1325,-6.32333824048486,2675,2.80611586043028,-0.530531952443681,0,NaN
208278119,24,b_3,red,blue,Y,color_change,no_figure_change,not_first,no_update,correct,21,1027,3032,2925,0,0.410853760162988,5.90500838264192,325,-5.92905246637653,2450,2.87851398819217,1.12810469231223,2,187.5
208278119,25,b_3,blue,blue,X,color_change,figure_change,not_first,update,correct,8,1016,3022,2475,0,-4.88747094472053,5.83166420196801,850,-15.4105023201446,1550,0.364193024382843,-2.26232297327934,1,125
208278119,26,b_3,red,blue,X,color_change,no_figure_change,not_first,no_update,correct,22,1028,3034,2725,0,-1.44147345716654,10.527470683524,2650,-12.5419229370903,1750,1.45942375995233,10.527470683524,0,NaN
208278119,27,b_3,red,blue,X,no_color_change,no_figure_change,not_first,no_update,correct,9,1016,3020,3250,0,-4.02634334355316,7.65967798923799,2425,-15.4745884120147,1775,0,-3.74932665035826,0,NaN
208278119,28,b_3,blue,blue,Y,color_change,figure_change,not_first,update,correct,16,1024,3028,2175,0,1.99041323326747,8.21473384798124,700,-3.4219685971544,200,-2.05865725356094,1.11097760119449,0,NaN
208278119,29,b_3,blue,blue,X,no_color_change,figure_change,not_first,update,correct,9,1017,3022,2275,0,4.78454558644748,16.4330854261217,2050,-1.88035647414242,1700,-0.436570226686669,11.3044524342186,0,NaN
208278119,30,b_3,red,blue,Y,color_change,figure_change,not_first,no_update,correct,22,1029,3033,2750,0,-6.76046215956163,4.27839686947341,1250,-15.3956541185358,2625,-8.2010377139317,-11.015003073947,0,NaN
208278119,31,b_3,red,blue,Y,no_color_change,no_figure_change,not_first,no_update,correct,8,1015,3020,3200,0,-5.39471450651752,6.41041003058837,1425,-14.0902872777018,2725,-1.59049530523464,-7.25084126334289,0,NaN
208278119,33,b_0,blue,blue,X,no_color_change,figure_change,not_first,update,correct,22,1030,3035,3025,0,-5.07182560786844,3.94861318930654,2125,-14.0230136325432,1450,1.06135586704407,-8.71811880702998,0,NaN
208278119,34,b_0,blue,blue,Y,no_color_change,figure_change,not_first,update,correct,11,1017,3021,3025,0,6.3993241446124,18.0454391462692,2875,-2.89658677055984,725,0.403150673329378,18.0454391462692,0,NaN
208278119,35,b_0,red,blue,X,color_change,figure_change,not_first,no_update,correct,219,1225,3230,2800,0,-3.76243889608392,5.36036769628866,400,-13.0052657293307,1875,-3.11836129055607,-9.23167399525902,1,125
208278119,36,b_0,red,blue,Y,no_color_change,figure_change,not_first,no_update,correct,10,1018,3023,2950,0,7.20819435666254,14.3833845326383,2125,0.0961926335060639,50,0.0961926335060639,7.35325451743364,0,NaN
208278119,38,b_1,blue,blue,Y,no_color_change,no_figure_change,not_first,update,correct,11,1019,3023,2675,0,-2.21659433954231,9.23713587479457,2600,-11.7558902919814,1250,-0.415109120479585,7.20012091383612,0,NaN
208278119,39,b_1,red,blue,X,color_change,figure_change,not_first,no_update,correct,21,1031,3035,3275,0,-5.72673483540643,-0.594666798594943,1775,-12.1676149013011,2800,-1.23306782763568,-11.1985355959036,0,NaN
208278119,40,b_1,red,blue,Y,no_color_change,figure_change,not_first,no_update,correct,9,1015,3020,3050,0,5.06134344998742,14.9932234761594,2075,-5.25191562898861,1800,1.00595193712088,3.6906834858965,0,NaN
208278119,41,b_1,blue,blue,X,color_change,figure_change,not_first,update,correct,20,1028,3033,2600,0,6.64758897854959,14.2150166685317,1925,-3.74498307811514,50,-3.74498307811514,10.2426490614318,0,NaN
208278119,42,b_1,red,blue,Y,color_change,figure_change,not_first,no_update,correct,7,1014,0,1500,0,-4.5695947997659,-0.172780385744019,100,-8.74363167376042,1425,-0.172780385744019,-5.16830509050671,0,NaN
208278119,43,b_1,red,blue,Y,no_color_change,no_figure_change,not_first,no_update,correct,1591,2598,4603,1250,0,-3.74157318797797,0.67336038805017,250,-7.59251595136428,1100,-1.27159784320686,-1.18823688634077,0,NaN
208278119,44,b_1,red,blue,Y,no_color_change,no_figure_change,not_first,no_update,correct,6,1012,3018,3075,0,-5.27834204418511,4.06255089111588,300,-11.8673117177663,900,1.41462407105095,-6.41516028963747,1,125
208278119,45,b_1,red,blue,Y,no_color_change,no_figure_change,not_first,no_update,correct,208,1214,3219,2650,0,8.69354674393199,20.5087808520077,1975,-1.65077853641645,50,-1.65077853641645,9.54932534057586,0,NaN
208278119,46,b_1,blue,blue,Y,color_change,no_figure_change,not_first,update,correct,3,1011,3016,2725,0,2.12657463630901,11.2785155396739,1775,-4.34293139467803,50,-4.34293139467803,-3.14228691874413,0,NaN
208278119,48,b_2,blue,blue,Y,no_color_change,no_figure_change,not_first,update,correct,21,1028,3034,3075,0,1.35520570759242,11.3868781987644,1775,-5.2766720320768,475,-1.09223043633314,2.88402039498415,0,NaN
208278119,49,b_2,red,blue,X,color_change,figure_change,not_first,no_update,correct,230,1240,3244,3000,0,-3.17671975395507,3.92084621096859,325,-8.62838151271089,2450,-4.56111682743428,-7.74051668349748,1,200
208278119,50,b_2,red,blue,Y,no_color_change,figure_change,not_first,no_update,correct,15,1022,3028,2975,0,-1.17906687313654,4.86625633240375,275,-6.50092407716045,1550,2.28337816207653,-5.06447913400768,0,NaN
208278119,51,b_2,blue,blue,X,color_change,figure_change,not_first,update,correct,5,1012,3017,2425,0,12.2354045094059,23.8061763136293,1675,0.259971838170216,50,0.259971838170216,11.8922649269486,0,NaN
208278119,52,b_2,blue,blue,X,no_color_change,no_figure_change,not_first,update,correct,15,1021,3027,2850,0,-0.131086516978797,9.18885590858969,850,-8.21104053941893,2775,-4.59581128242424,-7.09508997561392,0,NaN
208278119,53,b_2,blue,blue,X,no_color_change,no_figure_change,not_first,update,correct,251,1258,3264,3175,0,1.32344606230364,8.45887029394638,2075,-3.42304478821177,325,-0.887620156805156,0.506156585732256,1,250
208278119,54,b_2,blue,blue,Y,no_color_change,figure_change,not_first,update,correct,22,1029,3034,3000,0,1.82872714603043,9.69135948237184,1675,-5.92936711197746,100,-4.647962611927,6.59014162213917,0,NaN
208278119,56,b_3,red,blue,Y,color_change,no_figure_change,not_first,no_update,correct,21,1029,3034,2950,0,2.93444006584377,10.7724323401349,2275,-5.15965166908563,200,1.11798855971998,-1.58413728336036,0,NaN
208278119,57,b_3,red,blue,X,no_color_change,figure_change,not_first,no_update,correct,9,1016,3022,2375,0,1.70166315395955,7.62775527381767,1425,-3.75758851070546,1350,-2.1650796990899,4.63464674627808,1,150
208278119,58,b_3,blue,blue,X,color_change,no_figure_change,not_first,update,correct,168,1176,3181,2825,0,5.30441939686063,16.9520620309793,500,-4.56699663723832,2650,2.1023800947047,1.353959344996,0,NaN
208278119,59,b_3,red,blue,X,color_change,no_figure_change,not_first,no_update,correct,6,1013,3018,3150,0,-4.48836530627346,5.80287682061125,300,-16.8295352044143,2825,-1.1816543545617,-14.860495933255,0,NaN
208278119,60,b_3,blue,blue,Y,color_change,figure_change,not_first,update,correct,16,1023,3028,2925,0,7.0024487380635,22.1156335651599,1650,-1.94582578185681,550,-0.42295708380577,6.31087680454249,0,NaN
208278119,61,b_3,blue,blue,Y,no_color_change,no_figure_change,not_first,update,correct,155,1161,3167,2575,0,7.03216737886603,19.0255520006887,1975,-1.50479497117279,825,0.92784075653762,6.99518555790345,0,NaN
208278119,62,b_3,blue,blue,Y,no_color_change,no_figure_change,not_first,update,correct,15,1021,3026,3200,0,2.50914806345711,12.0033492116531,875,-5.4449944438832,2850,-0.453425753961127,-4.55038193446113,0,NaN
208278119,63,b_3,blue,blue,X,no_color_change,figure_change,not_first,update,correct,3,1010,3015,2550,0,2.49132377205076,9.24440709578909,1900,-1.43739944045338,1425,0.285102327345029,2.9405917256787,1,150
208278119,64,b_3,red,blue,Y,color_change,figure_change,not_first,no_update,correct,14,1020,3026,2950,0,9.68133782163998,22.4785045455547,1825,0.137859451487699,100,0.666654644040079,15.00463873009,1,125
208278119,65,b_3,blue,blue,X,color_change,figure_change,not_first,update,correct,22,1030,3034,3025,0,-4.03335326147211,7.99631711842417,1750,-12.0223762956349,2850,0.3147538467977,-11.6640277332143,0,NaN
208278119,66,b_3,red,blue,Y,color_change,figure_change,not_first,no_update,correct,11,1019,3024,3050,0,1.82231655030171,14.7885264122614,600,-9.81865335491294,2550,1.00871633874773,-3.25487978472398,0,NaN
208278119,68,b_0,red,blue,Y,color_change,figure_change,not_first,no_update,correct,2,1011,3015,1775,0,6.70341751383846,19.7076768420738,350,-9.76235265234081,125,-1.14842425509185,-0.991496717128996,0,NaN
208278119,69,b_0,blue,blue,Y,color_change,no_figure_change,not_first,update,correct,16,1022,3029,2025,0,-0.609272955733996,12.3175172150519,425,-12.1661121077176,1700,0.651883101022463,-3.21250580305366,0,NaN
208278119,70,b_0,red,blue,X,color_change,figure_change,not_first,no_update,correct,3,1009,3014,2375,0,2.89809778788898,13.0386742170222,2000,-3.76608097606595,1775,4.92725599599297,-0.428326813025535,0,NaN
208278119,71,b_0,red,blue,Y,no_color_change,figure_change,not_first,no_update,correct,14,1021,3026,2800,0,-5.00979886503793,3.62669941569841,2075,-10.7865524288332,1700,-6.449864238633,-8.67225702872898,1,250
208278119,72,b_0,blue,blue,Y,color_change,no_figure_change,not_first,update,correct,22,1030,3036,3100,0,2.59090841150317,11.8623964115582,1275,-3.85960431270807,2875,0.602680484873503,-3.85960431270807,0,NaN
208278119,73,b_0,blue,blue,X,no_color_change,figure_change,not_first,update,correct,13,1020,3023,2825,0,1.7976099813407,7.69439044333855,1200,-4.43555156037624,100,-4.43555156037624,3.71479473863765,1,250
208278119,74,b_0,red,blue,Y,color_change,figure_change,not_first,no_update,correct,22,1030,3035,3075,0,-5.42862051130442,10.2141311017755,2200,-14.0569263032968,1650,-4.85073872027081,6.40319763717405,0,NaN
208278119,76,b_1,red,blue,Y,color_change,figure_change,not_first,no_update,correct,14,1023,3028,2750,0,1.84945758829801,11.7989425326521,2275,-3.1300082608446,2500,-0.0503178543199141,-2.18288360925612,0,NaN
208278119,77,b_1,blue,blue,X,color_change,figure_change,not_first,update,correct,6,1016,3022,2875,0,7.25373692702941,20.8006228900004,2200,-0.745013459735461,475,-0.482458081675844,2.63541218176478,0,NaN
208278119,78,b_1,blue,blue,Y,no_color_change,figure_change,not_first,update,correct,211,1218,3223,2600,0,4.65427330352431,11.4471063787834,450,-1.0298728186927,75,-1.0298728186927,2.48210588583261,0,NaN
208278119,79,b_1,red,blue,X,color_change,figure_change,not_first,no_update,correct,250,1257,3264,3100,0,-6.48081286700515,5.61954180809468,2550,-15.2243913658635,75,-14.9889877820138,-14.2275416965785,0,NaN
208278119,81,b_2,red,blue,X,color_change,figure_change,not_first,no_update,correct,131,1139,3144,2750,0,8.53305966036442,25.0894708593362,2000,-0.849651326070031,1225,9.51827344512817,7.60586477274303,1,250
208278119,82,b_2,red,blue,X,no_color_change,no_figure_change,not_first,no_update,correct,21,1028,3033,2925,0,6.08361953407384,14.9237960222764,350,-2.3838890539275,50,-2.3838890539275,0.332041018158876,2,162.5
208278119,83,b_2,red,blue,X,no_color_change,no_figure_change,not_first,no_update,correct,7,1014,3019,2625,0,-2.05463611844905,13.0349831667864,250,-12.1875051940113,2600,-1.74703456579913,-11.9343144551413,1,125
208278119,84,b_2,blue,blue,Y,color_change,figure_change,not_first,update,correct,16,1022,3027,3100,0,2.81770118597621,7.79617988646969,1050,-1.12653473656081,525,0.0463474261520531,-0.902730949015748,1,125
208278119,85,b_2,red,blue,Y,color_change,no_figure_change,not_first,no_update,correct,5,1014,3018,3100,0,6.86903689150378,20.5116215636994,1500,-5.47556733190025,2875,-0.0774987390219195,-5.47556733190025,0,NaN
208278119,86,b_2,red,blue,Y,no_color_change,no_figure_change,not_first,no_update,correct,16,1023,3029,3150,0,7.48769940808351,18.6487507873189,850,-1.97522569808945,75,0.755826159983201,10.9932815452446,0,NaN
208278119,87,b_2,blue,blue,X,color_change,figure_change,not_first,update,correct,2,1009,3015,2975,0,2.85639654792481,10.654854455371,1375,-2.76219970004423,1675,-0.12886716218722,2.75314350820963,1,225
208278119,88,b_2,blue,blue,Y,no_color_change,figure_change,not_first,update,correct,15,1021,3026,3100,0,-2.39277628423008,7.33580854592611,1575,-11.5949658814585,1450,0.399997791084445,-6.01009106254361,1,250
208278119,89,b_2,red,blue,Y,color_change,no_figure_change,not_first,no_update,correct,23,1030,3035,2800,0,5.08892622785356,17.6903273262229,1175,-3.69950252608351,2750,-0.304097868798507,-3.33868875941232,0,NaN
208278119,90,b_2,blue,blue,Y,color_change,no_figure_change,not_first,update,correct,18,1028,3033,3025,0,11.6551148697389,24.9177744756814,2525,0.549699320854074,100,0.86982537672155,23.3113599872349,1,125
208278119,91,b_2,blue,blue,Y,no_color_change,no_figure_change,not_first,update,correct,118,1125,3129,2950,0,5.16525365056209,16.7425794318368,1625,-1.83392270630915,50,-1.83392270630915,0.737193058750378,1,125
208278119,92,b_2,red,blue,X,color_change,figure_change,not_first,no_update,correct,206,1213,3218,3200,0,-2.72769420461884,7.6831258336649,1350,-9.97120186215105,2875,-8.38616497494404,-9.97120186215105,0,NaN
208278119,93,b_2,red,blue,Y,no_color_change,figure_change,not_first,no_update,correct,22,1030,3036,3125,0,5.40566000337712,13.0380221893838,1825,-0.279517431723463,75,0.327015848442912,1.44606290901415,0,NaN
208278119,94,b_2,blue,blue,X,color_change,figure_change,not_first,update,correct,9,1017,3022,2700,0,5.03900799372388,13.7433495755781,2000,0.242964085316729,75,0.292896074503872,0.518833542818101,1,250
208278119,96,b_3,blue,blue,X,no_color_change,figure_change,not_first,update,correct,17,1024,3029,3250,0,-2.09128424190702,3.31742344757318,1325,-6.324533367296,2650,-0.569683075884299,-1.79011484632912,1,175
208278119,97,b_3,red,blue,X,color_change,no_figure_change,not_first,no_update,correct,4,1010,3016,3050,0,-11.2590538413218,-2.17278173429163,200,-20.1182583325821,2750,-2.95871202497931,-18.9746027323166,0,NaN
208278119,98,b_3,blue,blue,X,color_change,no_figure_change,not_first,update,correct,13,1020,3026,2550,0,7.93580206082357,19.2741455507857,2475,-0.928465600425483,75,0.919601362559987,19.2741455507857,0,NaN
208278119,100,b_0,blue,red,X,color_change,no_figure_change,not_first,no_update,correct,19,1026,3032,3100,0,1.44777272182303,6.96295487428681,2125,-5.97690480740357,2625,0.687759911914313,-3.45590710964302,0,NaN
208278119,101,b_0,blue,red,X,no_color_change,no_figure_change,not_first,no_update,correct,8,1016,3021,3325,0,3.54188236759449,9.90951433430786,2125,-3.73021783997895,75,-0.791656940013411,4.58190212578323,0,NaN
208278119,102,b_0,red,red,Y,color_change,figure_change,not_first,update,correct,16,1024,3029,3000,0,2.28112576906761,6.73073356036831,2350,-2.21692968593496,2050,1.63969698993182,0.375052863534179,1,200
208278119,103,b_0,blue,red,Y,color_change,no_figure_change,not_first,no_update,correct,6,1012,3017,3125,0,0.974252554808865,5.6418756879832,2275,-2.5907678397833,1150,-0.0665241848490297,5.43164456238296,0,NaN
208278119,104,b_0,blue,red,X,no_color_change,figure_change,not_first,no_update,correct,93,1100,3105,3000,0,1.02497575813567,7.57987751887458,2275,-4.04920971158546,125,-2.93319890282983,3.54119140731085,2,137.5
208278119,105,b_0,red,red,X,color_change,no_figure_change,not_first,update,correct,7,1016,3021,2875,0,-3.34232786928757,9.10943550030568,175,-12.7678204432962,2450,3.30624186133265,-6.9912231920501,0,NaN
208278119,106,b_0,red,red,Y,no_color_change,figure_change,not_first,update,correct,208,1215,3221,3325,0,6.04160700819709,13.2921684928612,2850,-0.247517280932115,50,-0.247517280932115,12.9397110537596,1,125
208278119,107,b_0,blue,red,Y,color_change,no_figure_change,not_first,no_update,correct,3,1010,3016,2975,0,2.16427972180317,10.6003218565749,2175,-3.64183158034371,1100,-0.527642313317955,2.81345234812174,0,NaN
208278119,108,b_0,blue,red,Y,no_color_change,no_figure_change,not_first,no_update,correct,17,1025,3030,3075,0,-1.83212834231825,3.48876590901668,200,-7.19535404277705,2600,2.24974083109407,-3.94968255032519,0,NaN
208278119,109,b_0,red,red,X,color_change,figure_change,not_first,update,correct,30,1037,3043,3525,0,-0.0177481235830729,6.45865682384166,2800,-3.38381963650559,1775,0.139591055716181,3.34251741402777,1,275
208278119,110,b_0,blue,red,Y,color_change,figure_change,not_first,no_update,correct,10,1017,3021,3300,0,1.80679569921246,9.02536554854441,1775,-4.22067876716109,2375,1.3290697849439,-0.424961158115323,0,NaN
208278119,111,b_0,red,red,Y,color_change,no_figure_change,not_first,update,correct,23,1030,3035,3100,0,3.0616027384596,12.6416810162998,800,-4.88544497693685,175,0.107017143489415,-1.52534006901655,0,NaN
208278119,113,b_1,red,red,Y,no_color_change,no_figure_change,not_first,update,correct,13,1020,3026,3125,0,0.574464911628891,6.1011039039888,325,-5.26089722329452,2350,0.847637326489888,-2.97715167035477,0,NaN
208278119,114,b_1,red,red,Y,no_color_change,no_figure_change,not_first,update,correct,6,1015,3021,2925,0,-0.176706824990593,4.14043888981317,1900,-5.55952692190263,1525,0.452857646931918,-3.05372679721594,1,175
208278119,115,b_1,red,red,Y,no_color_change,no_figure_change,not_first,update,correct,15,1023,3028,2975,0,-0.277358862064151,6.45163131469752,325,-7.24688414992609,2375,-0.643051335663287,0.133937319617445,1,150
208278119,116,b_1,red,red,Y,no_color_change,no_figure_change,not_first,update,correct,26,1033,3037,3025,0,-3.28395906392049,0.896469610131646,325,-9.60949211968227,2075,-1.94473338211311,-3.53452799915731,1,150
208278119,117,b_1,blue,red,Y,color_change,no_figure_change,not_first,no_update,correct,11,1019,3024,3075,0,0.638726523631216,8.30330294496683,2750,-3.9409415620575,2050,1.73400633223554,7.73424426114035,1,275
208278119,118,b_1,blue,red,X,no_color_change,figure_change,not_first,no_update,correct,22,1030,3035,3275,0,0.220973606671953,7.83825139032706,1800,-5.96460918566426,2150,-0.272251231590744,-0.0310089538354248,1,250
208278119,119,b_1,red,red,Y,color_change,figure_change,not_first,update,correct,14,1021,3026,3075,0,-2.85130991878654,3.22312603060256,75,-7.53493685112342,2100,-0.714121212679515,-4.88480281521468,0,NaN
208278119,120,b_1,red,red,X,no_color_change,figure_change,not_first,update,correct,69,1079,3084,3100,0,2.52746374628223,8.04862363545257,400,-1.4251545354402,2800,-0.230662022319649,-0.147891481328941,0,NaN
208278119,121,b_1,red,red,X,no_color_change,no_figure_change,not_first,update,correct,21,1027,3032,2900,0,4.91584218361576,12.6886703702603,925,-0.728835546577145,175,0.0186169949397481,6.58586098650268,0,NaN
208278119,122,b_1,blue,red,Y,color_change,figure_change,not_first,no_update,correct,9,1015,3020,3000,0,0.957153819868403,8.03917658268517,50,-10.2890233183393,2625,8.03917658268517,-6.79939728334331,1,250
208278119,123,b_1,red,red,Y,color_change,no_figure_change,not_first,update,correct,25,1035,3039,3100,0,2.26405656993869,8.27939090059006,2725,-3.61743462418987,2325,-0.64247251152743,2.41350401444554,0,NaN
208278119,124,b_1,red,red,Y,no_color_change,no_figure_change,not_first,update,correct,10,1017,3022,3125,0,3.0247196138966,8.87689728256603,1325,-1.96546497889616,125,-0.671055836112629,0.954050588834392,0,NaN
208278119,125,b_1,red,red,Y,no_color_change,no_figure_change,not_first,update,correct,150,1159,3163,3200,0,1.32785117035633,9.49126702555516,350,-8.94250515293845,1600,1.49345145429481,-4.45665179409484,0,NaN
208278119,126,b_1,blue,red,X,color_change,figure_change,not_first,no_update,correct,26,1034,3039,2850,0,1.60827122177917,8.05895994685569,1650,-6.89384265944285,2450,-2.8708267201292,4.77503172349053,0,NaN
208278119,128,b_2,blue,red,Y,color_change,no_figure_change,not_first,no_update,correct,22,1029,3035,3000,0,-3.39089855094827,4.42167857270388,2000,-10.4055194396363,550,0.414784911376614,-7.52927644747155,1,200
208278119,129,b_2,blue,red,Y,no_color_change,no_figure_change,not_first,no_update,correct,13,1020,3024,2900,0,0.919783077792765,6.34216194702832,2275,-4.01117593294438,2775,-0.866194802831188,-1.65679005925965,1,200
208278119,130,b_2,red,red,X,color_change,figure_change,not_first,update,correct,29,1039,3044,3100,0,1.23777037116432,8.53759272435819,1150,-9.46381398696339,2475,0.124518487621756,-5.0981017575713,0,NaN
208278119,131,b_2,red,red,Y,no_color_change,figure_change,not_first,update,correct,61,1068,3073,2825,0,NaN,NaN,25,NaN,25,NaN,NaN,0,NaN
208278119,133,b_3,red,red,Y,no_color_change,figure_change,not_first,update,correct,10,1019,3024,3050,0,1.08173895389078,7.16844315735209,1725,-3.12604239318313,2175,-0.336219183066987,2.67478090790551,2,125
208278119,134,b_3,blue,red,Y,color_change,no_figure_change,not_first,no_update,correct,21,1027,3033,3050,0,2.47222019609545,9.26867401281885,1750,-3.72445887881779,1400,1.22806086114382,3.62523273291141,1,275
208278119,135,b_3,red,red,X,color_change,figure_change,not_first,update,correct,8,1015,3021,3050,0,-2.70254253581259,5.47897716955281,2100,-8.15362633049213,925,-2.20270619762177,-2.24956014557129,2,175
208278119,136,b_3,blue,red,X,color_change,no_figure_change,not_first,no_update,correct,17,1024,3029,3025,0,-4.83229731460909,3.44981365272513,100,-13.6890764333,2650,3.37748580144319,-9.00331846177772,0,NaN
208278119,137,b_3,red,red,Y,color_change,figure_change,not_first,update,correct,7,1013,3018,3300,0,3.0287503708908,8.64536868445308,2125,-2.99907010352027,325,-1.1819743775544,1.77255101600942,0,NaN
208278119,139,b_0,blue,red,X,color_change,figure_change,not_first,no_update,correct,2,1011,3015,2925,0,-0.181303495504611,7.83924658986501,2300,-4.87401936532618,2075,0.612587462011447,-1.89412679341297,1,325
208278119,140,b_0,blue,red,X,no_color_change,no_figure_change,not_first,no_update,correct,13,1021,3025,3000,0,5.68161668428225,13.298965032773,2000,-0.242182704274015,100,-0.08023001759463,3.50679809463037,0,NaN
208278119,141,b_0,red,red,X,color_change,no_figure_change,not_first,update,correct,22,1029,3034,3300,0,-3.47273738703964,1.17635893011217,2775,-8.02881794650561,1875,-0.286453839516824,-1.9144089732528,0,NaN
208278119,142,b_0,red,red,Y,no_color_change,figure_change,not_first,update,correct,12,1020,3024,3300,0,2.53528278689923,8.8973924157352,2800,-1.58934253151449,2350,0.317599028339458,6.35602273624075,1,225
208278119,143,b_0,blue,red,X,color_change,figure_change,not_first,no_update,correct,23,1030,3034,3525,0,6.28143635450602,15.2896763418745,2375,-2.85249818299907,75,-1.64051989422737,13.4912320039587,0,NaN
208278119,144,b_0,blue,red,Y,no_color_change,figure_change,not_first,no_update,correct,10,1017,3023,3125,0,1.91692122462422,7.44355922391868,2100,-2.32438474469315,1300,-1.48787742351573,-0.236419359268766,1,150
208278119,145,b_0,red,red,X,color_change,figure_change,not_first,update,correct,21,1028,3033,3300,0,-1.29453625973729,5.70964278262817,150,-5.45622013505697,1825,3.2512395488602,-3.23275021245774,1,150
208278119,146,b_0,blue,red,X,color_change,no_figure_change,not_first,no_update,correct,9,1015,3020,2575,0,-4.04357755172361,7.97552131319364,2250,-13.731224695073,1250,-2.36013084601926,-0.213174199328861,1,125
208278119,147,b_0,blue,red,Y,no_color_change,figure_change,not_first,no_update,correct,21,1027,3034,3200,0,1.1601118432942,10.3319400479197,2450,-6.8848703195229,1875,-3.28424771332132,7.11554941499502,1,275
208278119,149,b_1,blue,red,X,color_change,figure_change,not_first,no_update,correct,2,1010,3017,2650,0,5.09223740566197,17.4381965047697,1550,-3.5965058970972,1250,-1.7385961582906,2.54241268970389,0,NaN
208278119,150,b_1,blue,red,X,no_color_change,no_figure_change,not_first,no_update,correct,108,1116,3120,3100,0,7.87301805506199,18.6451415710356,2750,-0.538127390776808,200,-0.425870867950394,11.7259903489029,0,NaN
208278119,151,b_1,red,red,Y,color_change,figure_change,not_first,update,correct,21,1028,3033,3025,0,7.34272915979639,18.312125707579,2225,-1.04337144752525,200,0.850006014193497,4.46836351972473,0,NaN
208278119,152,b_1,red,red,X,no_color_change,figure_change,not_first,update,correct,139,1148,3152,2125,0,-3.20204382421186,4.0511337796972,1150,-11.3328177022994,1875,-1.43801307224257,0.0200830542176078,0,NaN
208278119,153,b_1,blue,red,X,color_change,no_figure_change,not_first,no_update,correct,192,1200,3204,2900,0,-2.50868039552135,5.97528186574409,475,-10.1845942716756,1525,-0.0507030449017805,-9.8595829554597,0,NaN
208278119,154,b_1,blue,red,Y,no_color_change,figure_change,not_first,no_update,correct,11,1018,3022,3000,0,5.09847260593439,13.6193336291327,1850,-2.33413107794884,2475,-0.615354042715026,-0.208315845195287,1,125
208278119,155,b_1,blue,red,X,no_color_change,figure_change,not_first,no_update,correct,23,1029,3036,3100,0,6.15232596827056,15.7994422374564,2050,-1.12370699709977,50,-1.12370699709977,-1.10577642843963,0,NaN
208278119,156,b_1,blue,red,Y,no_color_change,figure_change,not_first,no_update,correct,7,1013,3018,3325,0,6.7873237646792,16.6492809639366,2100,-0.699820286735985,125,0.898932334844972,13.6036718604166,0,NaN
208278119,157,b_1,blue,red,X,no_color_change,figure_change,not_first,no_update,correct,20,1027,3032,3125,0,1.14187368963021,10.7754944427655,875,-6.37822772908902,2800,-0.581914643564687,-1.79879789127295,1,125
208278119,158,b_1,red,red,X,color_change,no_figure_change,not_first,update,correct,7,1013,3020,3075,0,-2.79072270234473,10.7049829884355,75,-13.6099303416737,2700,3.83655322795497,-10.1687581133708,0,NaN
208278119,159,b_1,blue,red,X,color_change,no_figure_change,not_first,no_update,correct,14,1020,3025,3125,0,8.07575717925249,17.0912982964813,2725,-1.00981055818143,200,0.218256464325151,12.3787159011716,0,NaN
208278119,160,b_1,red,red,X,color_change,no_figure_change,not_first,update,correct,5,1012,3018,3025,0,1.96642705741856,11.4807227016955,900,-7.12949486896629,2300,0.251592150028273,-6.28201681607075,0,NaN
208278119,161,b_1,red,red,Y,no_color_change,figure_change,not_first,update,correct,22,1028,3034,3150,0,8.19351071570863,21.8551069406815,2550,-1.0777169701375,50,-1.0777169701375,17.3498014573809,0,NaN
208278119,162,b_1,blue,red,Y,color_change,no_figure_change,not_first,no_update,correct,5,1011,3017,2700,0,0.0331257277234867,9.96640898839769,275,-9.517736325843,1775,-2.44562263945873,-8.30927505909844,0,NaN
208278119,164,b_2,red,red,Y,no_color_change,no_figure_change,not_first,update,correct,17,1025,3030,3125,0,2.39811966433212,8.01684709166778,2150,-1.69231968637234,1775,0.642996094504085,-1.241257183588,0,NaN
208278119,165,b_2,red,red,X,no_color_change,figure_change,not_first,update,correct,207,1216,3220,2925,0,7.28807033083915,14.1581615077998,2075,1.77707789970965,2800,4.67378573889079,4.17440086609909,1,125
208278119,166,b_2,red,red,X,no_color_change,no_figure_change,not_first,update,correct,18,1024,3030,3275,0,2.71209638375051,10.1909695032705,1400,-1.8317759177731,2350,2.23954617432614,2.98625491344791,0,NaN
208278119,168,b_3,red,red,Y,no_color_change,no_figure_change,not_first,update,correct,17,1023,3028,3325,0,7.92165784191669,16.762460372545,2200,-0.987450524301707,2275,0.0200716576938191,8.54771239377966,1,150
208278119,169,b_3,red,red,Y,no_color_change,no_figure_change,not_first,update,correct,5,1012,3019,3075,0,0.134467851564745,7.93167992512869,2800,-4.22960780299483,125,-1.36545098268601,5.86801188874591,0,NaN
208278119,170,b_3,blue,red,X,color_change,figure_change,not_first,no_update,correct,14,1023,3028,3350,0,6.67356563645202,14.1143093138927,2825,0.229300964249163,300,0.589861916647209,9.450539584493,0,NaN
208278119,171,b_3,blue,red,Y,no_color_change,figure_change,not_first,no_update,correct,2,1010,3016,3250,0,0.88962051562334,7.30193266576011,725,-3.05732064119998,275,-1.73519594511065,2.90831169901513,1,125
208278119,172,b_3,blue,red,X,no_color_change,figure_change,not_first,no_update,correct,14,1021,3026,3475,0,7.29536724702631,18.6336599195975,375,-0.66795649830793,100,1.40118561860035,1.99600330714618,0,NaN
208278119,173,b_3,red,red,Y,color_change,figure_change,not_first,update,correct,22,1028,3034,2600,0,2.3495312834608,19.2299794661191,975,-14.0640524607538,2600,0.0539842352785342,-14.0640524607538,0,NaN
208278119,174,b_3,red,red,X,no_color_change,figure_change,not_first,update,correct,22,1029,3036,2375,0,11.4543295136331,29.5396678320317,1825,-0.245855686799715,1200,3.79100514681264,11.4573032570525,0,NaN
208278119,175,b_3,red,red,Y,no_color_change,figure_change,not_first,update,correct,106,1112,3117,3050,0,10.0399103666465,20.0129291342667,1575,-1.7417285029989,175,-0.0120400247468808,9.48531672674333,0,NaN
208278119,176,b_3,red,red,X,no_color_change,figure_change,not_first,update,correct,11,1018,3022,2525,0,1.39253922964751,7.47427571104004,1750,-3.25291091762928,250,0.244805992960124,-0.871352057344779,0,NaN
208278119,177,b_3,red,red,Y,no_color_change,figure_change,not_first,update,correct,141,1147,3152,3200,0,1.66404608235606,8.2409060958845,2100,-3.02876241412663,1575,3.637561646199,-1.48317955814794,0,NaN
208278119,178,b_3,red,red,X,no_color_change,figure_change,not_first,update,correct,8,1017,3021,3300,0,7.82527705222657,15.2894638485378,2700,-1.66508997852247,75,-1.66508997852247,8.18417386608105,0,NaN
208278119,179,b_3,blue,red,Y,color_change,figure_change,not_first,no_update,correct,20,1027,3032,3400,0,3.50558203294163,14.4818911015634,1450,-4.04325878489861,350,0.511329292797285,1.59361573521964,1,125
208278119,180,b_3,blue,red,Y,no_color_change,no_figure_change,not_first,no_update,correct,113,1119,3124,3250,0,6.55592317370056,20.4818361578654,1800,-2.39299183448941,900,3.41983411277094,1.51597998516563,0,NaN
208278119,181,b_3,red,red,X,color_change,figure_change,not_first,update,correct,166,1172,3178,3425,0,1.15206779148818,7.7571485082283,1425,-5.53372204837605,50,-5.53372204837605,4.56230964915949,0,NaN
208278119,183,b_0,blue,red,Y,color_change,figure_change,not_first,no_update,correct,17,1026,3031,2000,0,-6.52161160696956,2.93896643320191,100,-15.5564613174954,1475,0.632600775258283,-8.11206863087612,0,NaN
208278119,184,b_0,red,red,Y,color_change,no_figure_change,not_first,update,correct,6,1015,3020,2925,0,-2.09943600015397,9.2195582931667,2750,-14.2386439330215,2200,0.648155153716175,-2.83310116056713,0,NaN
208278119,185,b_0,red,red,X,no_color_change,figure_change,not_first,update,correct,14,1022,3026,2300,0,11.7344488184983,23.903049719289,1975,-1.64523102284568,1700,4.71967776550909,1.90603567596152,0,NaN
208278119,186,b_0,blue,red,Y,color_change,figure_change,not_first,no_update,correct,5,1011,3016,2650,0,5.28842894778644,17.4925501191215,2175,-3.11339906081707,450,2.78491485303243,6.29604945648427,0,NaN
208278119,187,b_0,red,red,X,color_change,figure_change,not_first,update,correct,15,1022,3028,2675,0,-2.94486946857132,7.67518805702164,1100,-10.6331313394583,725,3.02208900762363,0.886601072956708,1,275
208278119,188,b_0,blue,red,X,color_change,no_figure_change,not_first,no_update,correct,3,1010,3015,3025,0,-2.6019582862701,6.7053235187178,2500,-9.09351093484651,1400,-6.53462397182361,-6.31544516952407,0,NaN
208278119,189,b_0,blue,red,X,no_color_change,no_figure_change,not_first,no_update,correct,17,1026,3030,3025,0,6.23304874301583,14.2899746830519,2800,0.440696426776967,225,8.96320452268962,4.75705778812211,0,NaN
208278119,190,b_0,red,red,Y,color_change,figure_change,not_first,update,correct,24,1030,3035,2250,0,-2.36277987101343,5.93622372178314,2175,-11.7377302432512,2000,3.61151573575967,5.16745378409364,0,NaN
208278119,191,b_0,red,red,Y,no_color_change,no_figure_change,not_first,update,correct,12,1019,3024,2350,0,-3.44596123047607,10.64376489858,450,-17.8465610786938,1650,4.12451191155179,-0.928208953041135,0,NaN
208278119,193,b_1,red,red,X,no_color_change,figure_change,not_first,update,correct,8,1016,3021,250,0,4.65044659826652,8.53333918933122,150,-0.823029129929424,225,8.3019749875691,-0.508060101361053,0,NaN
208278119,194,b_1,blue,red,Y,color_change,figure_change,not_first,no_update,correct,20,1026,3031,2250,0,2.78547115500877,14.4475929400501,2225,-4.68313495758765,2000,1.17055286112056,5.14673853650878,1,150
208278119,195,b_1,blue,red,Y,no_color_change,no_figure_change,not_first,no_update,correct,9,0,0,75,0,-2.68909940180907,0.834293520633096,75,-6.21249232425123,50,-6.21249232425123,0.834293520633096,0,NaN
208278119,196,b_1,red,red,Y,color_change,no_figure_change,not_first,update,correct,3470,4477,6482,700,0,-0.257484073644874,9.75947970706943,125,-8.49374664959529,700,8.469970774872,-8.29718957346671,0,NaN
208278119,198,b_2,red,red,Y,no_color_change,no_figure_change,not_first,update,correct,15,1021,3027,3175,0,0.537752149423275,10.8203642707204,1375,-9.03736210030087,2875,-0.870882948376604,-9.03736210030087,0,NaN
208278119,199,b_2,blue,red,X,color_change,figure_change,not_first,no_update,correct,3,1010,3015,3125,0,2.99368446523091,11.6335096490834,1825,-3.8617977546797,750,-0.478333474852107,-1.92415592372637,0,NaN
208278119,200,b_2,red,red,Y,color_change,figure_change,not_first,update,correct,16,1025,3030,2950,0,0.716155452464378,7.75931678806188,1825,-5.74276932387608,2600,-3.61044552509667,3.31491985284565,0,NaN
208278119,201,b_2,red,red,X,no_color_change,figure_change,not_first,update,correct,24,1030,3036,2750,0,4.04098751448271,11.0589115276831,2125,-2.23661268535261,1875,1.89899465993139,7.92744884070817,0,NaN
208278119,202,b_2,red,red,Y,no_color_change,figure_change,not_first,update,correct,15,1025,3031,2650,0,-0.881608103485386,10.8527545685732,1300,-10.4097414078482,450,-4.00023798227642,-5.10090601073055,0,NaN
208278119,203,b_2,red,red,X,no_color_change,figure_change,not_first,update,correct,147,1153,3159,2825,0,10.5799143233923,22.0711459860591,975,-1.0543301088568,100,-1.0543301088568,16.5388616314595,0,NaN
208278119,205,b_3,blue,red,Y,color_change,no_figure_change,not_first,no_update,correct,20,1026,3031,3250,0,-5.03691442838028,1.6032556075828,2325,-9.02077142286457,575,-2.04481796988044,-6.01781191821948,1,175
208278119,206,b_3,red,red,X,color_change,figure_change,not_first,update,correct,12,1020,3025,3150,0,1.80440796821902,15.364773029163,2650,-4.18428472263881,1025,-0.078156467190567,12.0282117423236,1,175
208278119,207,b_3,blue,red,Y,color_change,figure_change,not_first,no_update,correct,17,1025,3029,3250,0,5.15061185078288,13.6154855643045,2825,-0.889990274058377,325,-0.0444662056836762,12.690188789853,0,NaN
209049931,2,b_0,blue,red,X,color_change,no_figure_change,not_first,no_update,correct,23,1029,3034,2825,0,2.86996635543268,7.74216264148976,1725,-5.16111574774399,2125,0,-1.13322205414428,0,NaN
209049931,3,b_0,blue,red,X,no_color_change,no_figure_change,not_first,no_update,correct,9,1015,3021,2425,0,0.700887543099552,5.61695579182988,875,-6.2465025181869,1400,0,1.48934433874277,1,200
209049931,4,b_0,red,red,Y,color_change,figure_change,not_first,update,correct,20,1028,3032,3050,0,-0.731515237782614,5.22363562948266,675,-14.4830831708996,2300,0,-13.3150129414396,0,NaN
209049931,5,b_0,blue,red,X,color_change,figure_change,not_first,no_update,correct,7,1013,3017,3175,0,0.922292057294046,6.34469575480776,1125,-6.77736154053395,2150,0.432665785726201,-6.38574929118504,0,NaN
209049931,6,b_0,blue,red,X,no_color_change,no_figure_change,not_first,no_update,correct,17,1022,3028,3050,0,0.424168978329688,3.51718351873718,575,-3.07780747001429,325,1.42874899011871,1.08911814057548,1,175
209049931,7,b_0,red,red,Y,color_change,figure_change,not_first,update,correct,5,1013,3018,2475,0,-3.95511683155488,0.95684465874038,2025,-12.5965080410889,550,-1.18265400856518,-3.13198167170795,1,175
209049931,8,b_0,blue,red,X,color_change,figure_change,not_first,no_update,correct,40,1046,3052,2300,0,0.655991416413696,8.94455044525478,1125,-7.2954586786922,1975,0.308857934597327,0.829477746508388,1,175
209049931,9,b_0,blue,red,Y,no_color_change,figure_change,not_first,no_update,correct,3,1011,3016,2125,0,1.92312227331682,7.25708860052501,600,-6.07239712298077,1450,-3.06319388850619,4.18365510521971,1,125
209049931,11,b_1,red,red,X,no_color_change,no_figure_change,not_first,update,correct,12,1018,3023,3375,0,0.319291919616474,6.22596252603236,275,-4.83957109403886,1825,0,0.75592621502814,0,NaN
209049931,12,b_1,red,red,X,no_color_change,no_figure_change,not_first,update,correct,22,1030,3036,2825,0,-2.3213879644851,5.8404746624385,1650,-12.4296877949337,2125,-2.65865076069312,-4.8356550517825,0,NaN
209049931,13,b_1,blue,red,X,color_change,no_figure_change,not_first,no_update,correct,13,1020,3025,3100,0,0.544945649809449,3.29348114561984,2025,-4.31478005621301,1425,0.718170743015747,1.27230693965252,1,225
209049931,14,b_1,blue,red,Y,no_color_change,figure_change,not_first,no_update,correct,21,1029,3034,2500,0,-4.32180566744441,1.94390286863091,1775,-12.3743493498053,400,-3.51396658224158,-0.860953699823256,1,225
209049931,15,b_1,blue,red,X,no_color_change,figure_change,not_first,no_update,correct,10,1016,3021,2225,0,-4.24409570467724,5.9377894509789,1350,-14.5692969433977,275,1.97968609239592,-6.2851306256582,0,NaN
209049931,16,b_1,red,red,Y,color_change,figure_change,not_first,update,correct,22,1028,3034,2975,0,4.04026115501945,10.135697229136,1600,-4.00591423019019,2375,2.44551397556843,1.02589664916422,0,NaN
209049931,17,b_1,blue,red,Y,color_change,no_figure_change,not_first,no_update,correct,8,1016,3021,3000,0,3.68998454839163,10.807206068268,2025,-10.4465865992415,2500,-1.98577749683945,-10.4465865992415,0,NaN
209049931,18,b_1,red,red,X,color_change,figure_change,not_first,update,correct,20,1027,3032,2600,0,9.86720063245965,19.0500426469917,850,-0.063180728473796,250,4.23661884821531,10.0127414469089,0,NaN
209049931,19,b_1,red,red,Y,no_color_change,figure_change,not_first,update,correct,10,1020,3025,1975,0,0.361956096341582,9.89021160960161,1175,-15.2728510930904,1600,0.963995623010277,-7.95990624514448,0,NaN
209049931,20,b_1,red,red,X,no_color_change,figure_change,not_first,update,correct,17,1024,3029,1775,0,6.65265747678815,16.3719574160902,950,-6.09182593581579,1500,4.31165590855252,8.24134620101904,0,NaN
209049931,22,b_2,blue,red,Y,color_change,figure_change,not_first,no_update,correct,17,1024,3030,2775,0,-1.93778326093848,4.90120315395973,525,-13.0380422831653,2475,0.763672918041024,-10.5934093550718,0,NaN
209049931,23,b_2,red,red,Y,color_change,no_figure_change,not_first,update,correct,10,1018,3023,1925,0,6.82331487756732,17.1218762491557,1750,-7.70582640698011,50,-7.70582640698011,16.0109029759197,0,NaN
209049931,24,b_2,red,red,X,no_color_change,figure_change,not_first,update,correct,21,1028,3034,2525,0,-3.11905787820313,1.82653003755621,1600,-9.87903166044683,1500,0.319539010140474,-1.85380052821755,1,150
209049931,25,b_2,blue,red,X,color_change,no_figure_change,not_first,no_update,correct,174,1181,3186,2250,0,-3.5212026933702,3.82133497813025,150,-9.60390242680602,1400,2.20701272108481,-2.14094949450673,0,NaN
209049931,26,b_2,blue,red,Y,no_color_change,figure_change,not_first,no_update,correct,19,1026,3031,1975,0,1.89449472591303,5.65251442179122,1250,-5.44908120773746,1975,-1.12127039107568,-3.71209902326588,1,225
209049931,27,b_2,blue,red,X,no_color_change,figure_change,not_first,no_update,correct,6,1013,3018,1725,0,4.87351728055445,11.198678560491,575,-4.72929386390737,75,-1.25139278942328,3.8656015221315,0,NaN
209049931,28,b_2,blue,red,Y,no_color_change,figure_change,not_first,no_update,correct,22,1029,3036,1100,0,-1.26926640264133,7.28962136278993,675,-17.6853599523695,1000,1.37032720639465,-15.9894731508342,0,NaN
209049931,29,b_2,blue,red,Y,no_color_change,no_figure_change,not_first,no_update,correct,3,1010,3016,1925,0,NaN,NaN,25,NaN,25,NaN,NaN,0,NaN
209049931,30,b_2,blue,red,X,no_color_change,figure_change,not_first,no_update,correct,16,1022,3027,1200,0,2.3062197106015,13.3609159686571,950,-7.05620102674953,1100,2.3773980005404,0.256349635233718,0,NaN
209049931,31,b_2,blue,red,Y,no_color_change,figure_change,not_first,no_update,correct,22,1030,3036,925,0,4.94835733247775,15.1941981378878,450,-2.77930817021659,525,1.50452014400705,1.87701188855047,0,NaN
209049931,32,b_2,red,red,Y,color_change,no_figure_change,not_first,update,correct,13,1021,3025,1100,0,-0.494390742688175,5.73602536292341,325,-7.41531787084932,875,-3.24044718838645,0.363757717336895,1,150
209049931,33,b_2,blue,red,X,color_change,figure_change,not_first,no_update,correct,72,1079,3085,1250,0,6.79095908540863,13.7499579110408,775,0.163641873463746,1000,3.62604801508468,8.06390787568606,0,NaN
209049931,34,b_2,blue,red,X,no_color_change,no_figure_change,not_first,no_update,correct,411,1419,3425,900,0,5.60909864772488,11.955723516768,375,-2.69669401811433,50,-2.69669401811433,7.45195612590831,0,NaN
209049931,35,b_2,red,red,Y,color_change,figure_change,not_first,update,correct,21,1028,3033,825,0,0.468364644151399,4.47390275820415,150,-6.29120948258506,675,-1.07899637608215,-3.57075447956512,0,NaN
209049931,36,b_2,red,red,X,no_color_change,figure_change,not_first,update,correct,123,1129,0,350,0,3.81844325652895,12.0924833465056,175,-4.11856441232923,325,-2.09191882127131,1.06377723834255,0,NaN
209049931,37,b_2,blue,red,Y,color_change,figure_change,not_first,no_update,correct,471,1477,3483,775,0,7.6260906848415,16.0289327297329,200,-1.83819721697877,50,-1.83819721697877,1.16432520922774,0,NaN
209049931,38,b_2,blue,red,Y,no_color_change,no_figure_change,not_first,no_update,correct,99,1105,3111,1000,0,-4.44119607150527,4.06734504845662,75,-20.6250756879007,675,2.86124812212181,-3.64643849560274,0,NaN
209049931,39,b_2,blue,red,Y,no_color_change,no_figure_change,not_first,no_update,correct,21,1029,3033,1300,0,8.36229903356876,15.8867168091559,650,2.02134767933936,1125,4.0317302585365,8.91633971250879,0,NaN
209049931,41,b_3,blue,red,X,color_change,no_figure_change,not_first,no_update,correct,17,1024,0,2100,0,4.69292100107099,17.7223769320308,2075,-5.52476093651003,225,-2.121145147269,17.5343676789108,0,NaN
209049931,42,b_3,blue,red,Y,no_color_change,figure_change,not_first,no_update,correct,675,1683,3687,775,0,-6.17190370633187,3.9268048119727,75,-11.0710428432603,675,3.21124683914638,-10.6619684546165,0,NaN
209049931,43,b_3,blue,red,Y,no_color_change,no_figure_change,not_first,no_update,correct,9,1016,3021,3025,0,-2.06246759317473,2.10436718015373,150,-5.89527624492096,2075,-1.19538868104661,-0.290436027870356,0,NaN
209049931,44,b_3,red,red,X,color_change,figure_change,not_first,update,correct,21,1029,3034,2200,0,0.285726585019341,5.69009858551222,675,-5.5774377034557,1575,3.14176156439336,-4.36973621714299,0,NaN
209049931,46,b_0,red,blue,X,color_change,figure_change,not_first,no_update,correct,10,1018,3025,3000,0,1.69188179520505,9.27441089858888,1475,-6.50607400010213,2200,-0.307813643662442,-2.01171110341971,0,NaN
209049931,47,b_0,blue,blue,X,color_change,no_figure_change,not_first,update,correct,31,1039,3044,3425,0,-1.33281882811635,3.08691368345625,200,-7.09342250619532,2325,2.14462723554176,-1.92577553518646,0,NaN
209049931,48,b_0,red,blue,X,color_change,no_figure_change,not_first,no_update,correct,8,1014,3018,3200,0,4.42907390682872,8.17704711922201,1175,0.819133433026323,150,0.824213330285389,1.80907841138912,0,NaN
209049931,49,b_0,blue,blue,X,color_change,no_figure_change,not_first,update,correct,129,1136,3140,2400,0,1.49407827081287,7.65901277013752,1975,-7.97274066797642,500,-3.75030697445972,2.18842092337917,0,NaN
209049931,50,b_0,blue,blue,X,no_color_change,no_figure_change,not_first,update,correct,6,1012,3018,2050,0,-9.53000266190218,2.90153267301456,600,-20.0991997763142,425,-3.63367808092197,-14.9677995824127,0,NaN
209049931,51,b_0,blue,blue,X,no_color_change,no_figure_change,not_first,update,correct,16,1022,3028,2350,0,6.20756946992733,16.1795825591003,2350,-5.00970914402653,225,-0.936749371607462,16.1795825591003,0,NaN
209049931,52,b_0,blue,blue,X,no_color_change,no_figure_change,not_first,update,correct,229,1235,3241,2275,0,-10.110875895484,1.80557270320973,150,-19.9703086276624,1575,-6.05029465525185,-7.7709488290578,0,NaN
209049931,53,b_0,blue,blue,Y,no_color_change,figure_change,not_first,update,correct,15,1023,3028,3175,0,5.08352321168152,12.3771383400242,2350,-3.11135210706318,150,-0.655915488817101,8.87903128337966,0,NaN
209049931,55,b_1,blue,blue,Y,no_color_change,figure_change,not_first,update,correct,5,1012,3018,3325,0,3.86159691403381,9.77924582727668,1150,-4.22673823407973,2200,0.252540963671436,2.29605832480217,0,NaN
209049931,56,b_1,red,blue,Y,color_change,no_figure_change,not_first,no_update,correct,42,1049,3054,3250,0,-5.81511890413926,0.621952346837375,1325,-12.0568625638418,600,-1.60500103995747,-5.869404451018,0,NaN
209049931,57,b_1,red,blue,Y,no_color_change,no_figure_change,not_first,no_update,correct,2,1009,3014,2650,0,-2.50088125201598,3.31591850850056,1825,-11.300183411453,2475,-1.599446677906,-4.17492635752264,0,NaN
209049931,58,b_1,blue,blue,Y,color_change,no_figure_change,not_first,update,correct,22,1029,3035,2650,0,-1.05679292591614,9.6605122484989,2100,-8.46256959189066,375,-7.28158664618455,-0.16307414328999,1,275
209049931,59,b_1,blue,blue,X,no_color_change,figure_change,not_first,update,correct,22,1030,3034,2875,0,-3.02553264254532,3.56971238457277,2075,-16.4443056920124,2175,-1.29100976062145,-6.64542530171002,1,125
209049931,60,b_1,red,blue,Y,color_change,figure_change,not_first,no_update,correct,12,1020,3025,2725,0,-1.8799742247144,7.2925566039212,975,-16.3663959692688,2250,-1.1350514012111,-0.00688478930979386,1,125
209049931,62,b_2,red,blue,X,color_change,figure_change,not_first,no_update,correct,3,1012,3016,2875,0,-0.0332163697803704,6.78117652577205,900,-9.03678035566656,2450,-1.09174274272513,-7.2810211488511,0,NaN
209049931,63,b_2,red,blue,Y,no_color_change,figure_change,not_first,no_update,correct,16,1023,3030,2950,0,7.25089493419427,14.9690653298289,1775,-1.09429915804927,150,1.53844592606123,4.20535614617266,0,NaN
209049931,64,b_2,red,blue,Y,no_color_change,no_figure_change,not_first,no_update,correct,3,1011,3016,2650,0,1.78792148329374,11.6310370353754,925,-4.94146827622231,1325,-1.00944390856681,0.541574668405687,0,NaN
209049931,66,b_3,red,blue,Y,color_change,figure_change,not_first,no_update,correct,11,1020,3024,3100,0,-4.45474279056158,3.52032796513065,75,-15.2173287194044,1850,0.619828762588028,-7.32221307369427,0,NaN
209049931,67,b_3,red,blue,Y,no_color_change,no_figure_change,not_first,no_update,correct,31,1043,3048,3550,0,5.25137715292272,10.1061082607338,1550,0.515232767072106,100,1.90258822510661,2.51245558204911,0,NaN
209049931,68,b_3,blue,blue,X,color_change,figure_change,not_first,update,correct,2,1010,3016,3500,0,1.76965836354684,6.36164835672082,2300,-4.60412435376662,400,1.5948116691285,3.32983290251107,1,150
209049931,69,b_3,blue,blue,X,no_color_change,no_figure_change,not_first,update,correct,15,1022,3028,3050,0,1.47047187042331,4.91411855166473,1225,-2.13330558301681,375,0.562232975469882,1.7670592180192,0,NaN
209049931,71,b_0,red,red,Y,no_color_change,no_figure_change,not_first,update,correct,25,1031,3037,2975,0,-1.2772634658294,5.03425556106237,1425,-7.56945861636687,2250,0.883064633684143,-5.53919710795604,0,NaN
209049931,72,b_0,red,red,Y,no_color_change,no_figure_change,not_first,update,correct,11,1017,0,1150,0,3.6150250653614,9.4623448763024,925,-1.13690485746547,450,-0.030235408070979,0.83107236697758,0,NaN
209049931,73,b_0,blue,red,X,color_change,figure_change,not_first,no_update,correct,2223,3230,5235,1025,0,-4.22585011072066,1.1339176679718,300,-9.86438086982497,775,-0.424926274852041,-3.94381953372321,0,NaN
209049931,74,b_0,blue,red,X,no_color_change,no_figure_change,not_first,no_update,correct,23,1030,3035,3000,0,4.56236555593557,11.8583282049105,1600,-3.653660178075,2425,-0.162189528316489,-3.37687692694801,0,NaN
209049931,76,b_1,blue,red,X,color_change,no_figure_change,not_first,no_update,correct,24,1033,3037,3050,0,3.01221441386863,10.6982218043086,1950,-4.40865560260411,1700,-2.51696443009696,2.2764977510526,0,NaN
209049931,77,b_1,blue,red,Y,no_color_change,figure_change,not_first,no_update,correct,11,1019,3024,3125,0,-3.63523516704413,1.31222145234001,150,-10.9006766409184,2150,0.0265181649429849,-7.44019868663798,0,NaN
209049931,78,b_1,blue,red,X,no_color_change,figure_change,not_first,no_update,correct,19,1027,3033,2525,0,1.17932583322751,6.74104786554152,1325,-9.78995631243919,2400,0.230838203404701,-5.54663504034899,0,NaN
209049931,79,b_1,blue,red,X,no_color_change,no_figure_change,not_first,no_update,correct,8,1015,3020,2200,0,6.95286492700362,13.642013010994,875,-2.52052498508566,1550,6.77324507826482,7.76469418482429,0,NaN
209049931,80,b_1,red,red,X,color_change,no_figure_change,not_first,update,correct,17,1023,3029,1700,0,-6.81418155598667,3.79779998100609,1425,-18.3697328735497,1200,0.0108068810358901,-12.1217182285885,0,NaN
209049931,81,b_1,blue,red,X,color_change,no_figure_change,not_first,no_update,correct,13,1026,3031,1550,0,-2.92851373358014,5.39710823569226,275,-13.5882533729768,175,-8.31891595097744,3.47916472420498,0,NaN
209049931,83,b_2,red,red,Y,no_color_change,no_figure_change,not_first,update,correct,491,1499,3504,800,0,3.22569624093031,14.904775983345,150,-4.73255971519026,550,8.78481589612821,6.64689505648151,0,NaN
209049931,84,b_2,blue,red,Y,color_change,no_figure_change,not_first,no_update,correct,3,1010,3015,2975,0,6.7627429368277,18.2822361157849,1950,-2.08964299841189,450,3.41031862701688,6.58153415632029,1,200
209049931,85,b_2,red,red,Y,color_change,no_figure_change,not_first,update,correct,14,1021,3027,3075,0,-3.41657084733106,1.21556244074134,1175,-11.3058111988417,2200,-0.287142861001783,-2.37547913419539,0,NaN
209049931,86,b_2,red,red,X,no_color_change,figure_change,not_first,update,correct,135,1142,3148,2850,0,10.3290207097571,17.8633516774506,1700,-0.210976536415757,1475,5.38321167883211,13.2175504846992,0,NaN
209049931,88,b_3,blue,red,X,color_change,figure_change,not_first,no_update,correct,20,1028,3034,2825,0,0.385378070156843,9.08370529495886,1575,-11.3241421151358,2225,-0.798298778562625,-4.83374708260334,0,NaN
209049931,89,b_3,red,red,Y,color_change,figure_change,not_first,update,correct,14,1021,3027,3075,0,3.73489606197513,9.54336952859771,750,-0.66602741856066,2325,3.96247440847954,4.93106486640579,1,175
209049931,90,b_3,red,red,X,no_color_change,figure_change,not_first,update,correct,22,1030,3035,3150,0,0.372332890977041,6.24131507248312,1875,-5.59536884773388,2250,0.247577322402719,-1.88565325825105,0,NaN
209049931,91,b_3,blue,red,X,color_change,no_figure_change,not_first,no_update,correct,12,1019,3024,3100,0,-0.869116521701641,4.28357503152586,2125,-6.64164807449801,2500,0.548064797749532,-6.64164807449801,0,NaN
209049931,92,b_3,blue,red,Y,no_color_change,figure_change,not_first,no_update,correct,22,1029,3034,2850,0,-1.08310598991658,4.87752653670425,300,-9.29406541364511,2100,0.191448427005568,-4.8154947272962,1,275
209049931,93,b_3,red,red,Y,color_change,no_figure_change,not_first,update,correct,9,1018,3023,2925,0,-1.92870696569475,5.55104441730657,2200,-9.26740535667474,1525,-0.202042160316637,4.05554880660857,0,NaN
209049931,94,b_3,red,red,Y,no_color_change,no_figure_change,not_first,update,correct,13,1020,3024,2775,0,-2.46916504330336,4.42246660270131,2000,-10.7441139567496,2275,-2.14953133072551,-5.53564838733486,1,200
209049931,96,b_0,blue,blue,Y,no_color_change,no_figure_change,not_first,update,correct,7,1014,3020,3300,0,-1.35633986193736,2.50650156924564,2325,-5.09311048233204,1525,-1.70771691209077,1.46024243915419,0,NaN
209049931,97,b_0,blue,blue,X,no_color_change,figure_change,not_first,update,correct,27,1037,3042,3450,0,-2.51308482057903,5.63912008671215,2450,-8.77620962606798,1100,-0.603362643022706,5.46422416110802,0,NaN
209049931,98,b_0,blue,blue,Y,no_color_change,figure_change,not_first,update,correct,8,1015,3021,3025,0,-2.39048222387879,3.32902239564439,2250,-6.80205041858559,650,0.745782989058341,1.36556105423196,0,NaN
209049931,99,b_0,red,blue,X,color_change,figure_change,not_first,no_update,correct,19,1027,3031,3000,0,2.732639756554,7.67921935129192,1025,-2.43870258383727,450,2.00357339197362,4.3125343595382,0,NaN
209049931,101,b_1,red,blue,Y,color_change,no_figure_change,not_first,no_update,correct,15,1022,3027,2900,0,-1.27037788039158,4.76485264599395,975,-10.8303474840703,2200,-1.79870060842541,-9.30396883461209,0,NaN
209049931,102,b_1,blue,blue,Y,color_change,no_figure_change,not_first,update,correct,22,1030,3035,2875,0,1.38391988356731,7.17876396060323,1925,-6.92497912205394,2325,1.66763609658771,-0.0864363214521262,1,350
209049931,103,b_1,red,blue,Y,color_change,no_figure_change,not_first,no_update,correct,15,1022,3027,2950,0,2.00020626117687,6.70780772036608,825,-3.5909189107953,1550,0.469020536086092,3.5783949979492,0,NaN
209049931,104,b_1,red,blue,X,no_color_change,figure_change,not_first,no_update,correct,6,1014,3019,2225,0,3.27576903295254,10.2380086376321,1075,-8.9934071576811,1750,1.00925198595239,2.64630638836334,1,250
209049931,105,b_1,red,blue,Y,no_color_change,figure_change,not_first,no_update,correct,21,1029,3035,1975,0,0.156880277461032,7.21973188669759,550,-5.850866867566,1025,3.27871320065147,2.74826671643993,0,NaN
209049931,107,b_2,blue,blue,Y,no_color_change,figure_change,not_first,update,correct,16,1025,3031,2625,0,0.311014153172459,7.34016351893706,875,-11.5927293111571,2000,0.541485028654577,-3.12725494522533,0,NaN
209049931,108,b_2,red,blue,X,color_change,figure_change,not_first,no_update,correct,5,1012,3018,1900,0,0.262862536835807,4.10398004963292,600,-2.86680213962219,50,-2.86680213962219,0.881181712973515,0,NaN
209049931,109,b_2,red,blue,X,no_color_change,no_figure_change,not_first,no_update,correct,16,1024,3030,1775,0,1.68736323083829,6.08736743912019,1675,-1.5140170856245,50,-1.5140170856245,5.05664522780833,0,NaN
209049931,110,b_2,blue,blue,Y,color_change,figure_change,not_first,update,correct,20,1026,3031,1075,0,3.48924732394829,7.65842309644236,650,-4.44348773158312,50,-4.44348773158312,6.92254617406725,0,NaN
209049931,112,b_3,blue,blue,X,no_color_change,figure_change,not_first,update,correct,21,1028,3033,2775,0,0.77360910694244,7.34675952067256,975,-8.75462701549658,1650,2.4600037643516,-2.05345379258422,0,NaN
209049931,113,b_3,red,blue,X,color_change,no_figure_change,not_first,no_update,correct,21,1030,3035,2575,0,2.02449309140712,8.7815231746431,1300,-8.64253820514433,2075,-1.46971888560468,-1.20527010879819,0,NaN
209049931,114,b_3,red,blue,Y,no_color_change,figure_change,not_first,no_update,correct,21,1029,3035,2075,0,4.82817977850442,12.0795187839035,725,-5.54921740211698,1500,3.48446461600633,1.44427001569859,0,NaN
209049931,116,b_0,red,blue,X,color_change,no_figure_change,not_first,no_update,correct,21,1028,3034,3175,0,-2.73636961576784,2.35933480259929,1500,-12.2496504111392,2475,0.682159196952554,-11.7575314062691,0,NaN
209049931,117,b_0,red,blue,X,no_color_change,no_figure_change,not_first,no_update,correct,6,1013,3019,2500,0,-0.286309509610481,7.56831727705514,1075,-10.9919906036411,2125,1.48005148005149,3.13878372130799,0,NaN
209049931,118,b_0,red,blue,X,no_color_change,no_figure_change,not_first,no_update,correct,10,1017,3021,2675,0,0.0824786239884705,7.82574120389481,1450,-7.98630502877401,2200,-2.27460359857223,-3.57186217614064,0,NaN
209049931,119,b_0,red,blue,X,no_color_change,no_figure_change,not_first,no_update,correct,6,1012,3018,2775,0,-1.58729306295469,4.0003514129223,250,-9.89318258930736,1900,-3.04729533226698,-1.39020163831128,0,NaN
209049931,120,b_0,blue,blue,Y,color_change,figure_change,not_first,update,correct,15,1022,3028,2650,0,0.567249217437288,7.62262992246872,2100,-5.25493206417441,1300,-2.49973132724342,3.95087126736777,0,NaN
209049931,121,b_0,blue,blue,X,no_color_change,figure_change,not_first,update,correct,21,1029,3034,2375,0,-5.2769058983728,-0.0435996073069447,1025,-9.73190690445755,1375,-0.436292669037456,-5.49829605616341,0,NaN
209049931,122,b_0,red,blue,Y,color_change,figure_change,not_first,no_update,correct,14,1022,3027,2300,0,-2.8455966379884,5.7841987585409,400,-12.0868708663633,1750,0.342417561799337,-2.03011398283222,0,NaN
209049931,123,b_0,red,blue,Y,no_color_change,no_figure_change,not_first,no_update,correct,21,1028,3032,1775,0,-1.81606162937452,4.85413557930157,1800,-10.3769207401547,1475,-0.903995540110628,4.85413557930157,1,150
209049931,124,b_0,blue,blue,Y,color_change,no_figure_change,not_first,update,correct,13,1021,3027,2275,0,1.245655356847,7.60786617665372,1175,-5.20580224720536,300,0.807818920843332,1.72004763896561,0,NaN
209049931,125,b_0,red,blue,Y,color_change,no_figure_change,not_first,no_update,correct,21,1028,3035,1650,0,-5.70907118248442,2.61071886041719,100,-14.6039986881432,1400,0.326417207601338,-7.14683514538716,0,NaN
209049931,127,b_1,red,blue,Y,color_change,figure_change,not_first,no_update,correct,14,1022,3027,3100,0,-11.0581539238794,-2.42937440294004,50,-20.8736221953404,1950,-2.42937440294004,-16.9934428270265,0,NaN
209049931,128,b_1,red,blue,X,no_color_change,figure_change,not_first,no_update,correct,4,1010,3016,2550,0,-1.52606043081698,8.03103564601372,625,-13.1281425197989,2075,0.970586817882449,-3.76411623909657,0,NaN
209049931,129,b_1,blue,blue,X,color_change,no_figure_change,not_first,update,correct,22,1030,3035,1200,0,0.58927132753003,5.63673473532428,600,-4.79222304586088,925,-2.33823116265059,-3.87121450596912,0,NaN
209049931,130,b_1,blue,blue,X,no_color_change,no_figure_change,not_first,update,correct,21,1028,3033,2075,0,1.10341023799017,6.64418201137907,1350,-6.95186086862954,1325,-0.596527095915107,3.54217386041131,1,175
209049931,131,b_1,red,blue,X,color_change,no_figure_change,not_first,no_update,correct,14,1021,3025,1925,0,-3.3054410241508,4.58748872547289,200,-12.8961331180607,1525,-0.00192589786963993,-3.15622562535511,0,NaN
