participant_id,trial_id,block,border_color,dominant,figure,is_color_change,is_figure_change,is_first,is_update,is_correct,event_fixation,event_stimulus_on,event_stimulus_off,event_Trial_Offset,event_Trial_Onset,trial_mean,trial_max,trial_max_latency,trial_min,trial_min_latency,first_bin,last_bin,valid_blinks,blinks_mean
206993057,2,b_0,blue,blue,Y,no_color_change,figure_change,not_first,update,correct,109,1117,3122,2700,0,-0.439618707672183,0.613575200444463,300,-1.42639612978925,2175,0,-1.37777934088135,1,125
206993057,3,b_0,blue,blue,X,no_color_change,figure_change,not_first,update,correct,24,1031,3036,2550,0,-0.377452878109393,0.525347395327416,925,-1.26837558398818,625,-0.219646560932186,0.0791021685403177,0,NaN
206993057,4,b_0,blue,blue,Y,no_color_change,figure_change,not_first,update,correct,16,1023,3027,2850,0,-0.172262619146771,0.714876159186317,1975,-1.36909320519054,1725,-0.371601994507565,-0.815561816687882,0,NaN
206993057,5,b_0,blue,blue,X,no_color_change,figure_change,not_first,update,correct,6,1013,3018,2600,0,0.104929287710371,1.58446462114151,1750,-0.993895294343632,900,-0.104713083801628,0.925588865746538,1,125
206993057,6,b_0,blue,blue,Y,no_color_change,figure_change,not_first,update,correct,16,1022,3027,2775,0,1.25134755088983,2.86553778527016,1675,-0.487390500634366,1225,0.625817297848622,1.61852993526287,0,NaN
206993057,8,b_1,blue,blue,Y,no_color_change,figure_change,not_first,update,correct,22,1030,3035,2525,0,0.172852151897935,2.19346102144721,525,-0.776646010971007,2150,0.592527103471517,-0.609707592648371,1,150
206993057,10,b_1,red,blue,Y,no_color_change,figure_change,not_first,no_update,correct,22,1029,3034,2550,0,-0.033690806093725,2.17244488817506,2025,-1.33179156636377,1075,0,-0.866344146324585,0,NaN
206993057,11,b_1,red,blue,X,no_color_change,figure_change,not_first,no_update,correct,9,1017,3021,2675,0,0.753515425019916,2.52985499953002,1200,-0.617282989736585,1825,0.539587224031209,1.78650717386132,0,NaN
206993057,12,b_1,red,blue,X,no_color_change,no_figure_change,not_first,no_update,correct,22,1029,3035,2500,0,-0.39487318482788,1.01620595749795,950,-1.21708982606397,325,0.147288733259433,-1.01988178308928,0,NaN
206993057,13,b_1,red,blue,X,no_color_change,no_figure_change,not_first,no_update,correct,69,1075,3081,2575,0,-1.13397666200237,-0.0233654652805221,175,-2.24908585175422,100,-0.122245173687219,-1.456130362453,1,125
206993057,14,b_1,red,blue,X,no_color_change,no_figure_change,not_first,no_update,correct,41,1048,3053,2550,0,-0.267223092993453,1.65683043973946,1825,-1.44097157735138,1025,1.09626703706209,0.809896250722119,0,NaN
206993057,18,b_2,blue,blue,X,no_color_change,figure_change,not_first,update,correct,236,1243,3248,2475,0,-0.0494037603614403,1.74569751887239,1550,-1.58794067360287,550,-1.00178233751459,0.219878297762943,0,NaN
206993057,19,b_2,blue,blue,Y,no_color_change,figure_change,not_first,update,correct,22,1030,3039,2725,0,0.539620624302825,2.44144340313341,2000,-0.739847800431745,1575,1.26262211784523,1.31485879586807,0,NaN
206993057,22,b_2,blue,blue,X,no_color_change,no_figure_change,not_first,update,correct,22,1029,3033,2750,0,-0.327026189536863,1.19683283068568,1850,-1.77764523781614,1550,-0.802976109500187,-0.288144771734045,0,NaN
206993057,23,b_2,blue,blue,X,no_color_change,no_figure_change,not_first,update,correct,18,1024,3029,2450,0,-0.780097821299746,0.673467184807498,1100,-2.99114713846596,1700,-0.56864222805309,-1.60238826636183,0,NaN
206993057,24,b_2,blue,blue,X,no_color_change,no_figure_change,not_first,update,correct,5,1011,3015,2275,0,-1.12448074929621,0.0157421226411179,1025,-3.4109743665467,1850,-1.91032655981265,-2.91974822181704,0,NaN
206993057,25,b_2,blue,blue,Y,no_color_change,figure_change,not_first,update,correct,20,1028,3033,2500,0,0.154499780072864,1.90357422801988,775,-1.44661317054155,1150,0.543606659406073,0.475084475828619,0,NaN
206993057,27,b_3,blue,blue,Y,no_color_change,no_figure_change,not_first,update,correct,26,1032,3039,3050,0,0.274894022041343,2.08162003236849,1850,-1.10647144854062,1575,1.20283401550978,-1.06526224729177,0,NaN
206993057,28,b_3,blue,blue,Y,no_color_change,no_figure_change,not_first,update,correct,12,1018,3023,2625,0,0.102304403461166,2.1187059162149,1125,-1.46176396471797,600,-0.252625109226548,-0.695338347075894,0,NaN
206993057,32,b_0,red,blue,Y,no_color_change,no_figure_change,not_first,no_update,correct,128,1136,3141,2675,0,-0.0586266167653605,0.408583996326394,800,-1.18300853009221,900,0.32962566443965,-0.104305546616503,1,150
206993057,40,b_1,blue,blue,X,no_color_change,no_figure_change,not_first,update,correct,18,1025,3031,2100,0,1.63660027103862,3.42661260716024,1475,-0.0846079160021094,1625,1.24709575018447,0.261223344740174,0,NaN
206993057,41,b_1,blue,blue,Y,no_color_change,figure_change,not_first,update,correct,5,1012,0,225,0,0.0770974451811346,0.189776482540055,200,-0.0271371819742314,50,-0.0271371819742314,0.0625209987533535,0,NaN
206993057,45,b_1,red,blue,X,no_color_change,figure_change,not_first,no_update,correct,375,1382,3388,1275,0,NaN,NaN,25,NaN,25,NaN,NaN,0,NaN
206993057,46,b_1,red,blue,Y,no_color_change,figure_change,not_first,no_update,correct,13,1020,3027,2175,0,-0.263298941101626,0.799827684971963,1675,-1.65088519139175,1025,-0.577528136873863,-0.737210795116227,1,125
206993057,47,b_1,red,blue,X,no_color_change,figure_change,not_first,no_update,correct,20,1027,3032,2150,0,0.572298311358632,1.67302804511689,725,-1.29142141226076,1650,-0.61594051430323,1.31748781025839,0,NaN
206993057,51,b_2,blue,blue,Y,no_color_change,no_figure_change,not_first,update,correct,24,1032,3036,275,0,0.228405341397528,1.43161420394389,50,-1.86297233708612,275,1.43161420394389,-1.13843514933477,0,NaN
206993057,52,b_2,blue,blue,X,no_color_change,figure_change,not_first,update,correct,16,1025,3029,2500,0,-0.196731011676044,0.567795189982045,1600,-2.11123440115426,1125,0.0319637007941479,-1.61435068138404,1,225
206993057,53,b_2,blue,blue,Y,no_color_change,figure_change,not_first,update,correct,5,1013,3019,950,0,0.345721280377051,2.1885705752257,850,-1.71774526252791,525,9.5891102382395e-05,1.88423618903942,0,NaN
206993057,54,b_2,blue,blue,Y,no_color_change,no_figure_change,not_first,update,correct,14,1020,3025,2650,0,0.0547349195754957,0.45656151121841,1125,-0.518051680621152,1375,0.087292866868818,-0.186060702322735,0,NaN
206993057,57,b_2,blue,blue,X,no_color_change,figure_change,not_first,update,correct,21,1028,3033,2275,0,0.337300364485949,1.00809516842143,1950,-0.996204671726009,625,0.506736530540024,0.820300435330615,1,175
206993057,58,b_2,blue,blue,X,no_color_change,no_figure_change,not_first,update,correct,12,1019,3025,2050,0,-0.169356314442277,0.363099650096322,750,-1.65283497714019,1800,0.0502309557980035,-0.410709582429205,1,225
206993057,61,b_2,blue,blue,X,no_color_change,figure_change,not_first,update,correct,21,1029,3034,2575,0,-1.1008536485547,0.125337661739051,1600,-3.0657663979699,575,-0.589162923962934,-0.145594657117345,0,NaN
206993057,67,b_3,red,blue,X,no_color_change,figure_change,not_first,no_update,correct,21,1029,3034,2175,0,-0.119062462514829,0.269477970470262,650,-0.891955061585896,1300,-0.673059647622372,-0.299116312031636,1,125
206993057,68,b_3,red,blue,Y,no_color_change,figure_change,not_first,no_update,correct,22,1029,3034,2300,0,0.0476688539250081,0.401360199946917,1525,-0.867606712505954,1150,0.266513337221605,-0.519777720464036,0,NaN
206993057,71,b_3,red,blue,Y,no_color_change,no_figure_change,not_first,no_update,correct,130,1138,3142,2250,0,0.0563691984571111,0.479215784156262,100,-1.04916852394191,725,-0.132473557941346,-0.136900530501335,1,125
206993057,73,b_3,blue,blue,X,no_color_change,figure_change,not_first,update,correct,22,1029,3034,1625,0,-0.219676152327062,0.425684576251263,725,-1.72302726408414,975,-0.0233095288041323,-0.0499432824908551,0,NaN
206993057,75,b_3,red,blue,X,no_color_change,figure_change,not_first,no_update,correct,20,1028,3033,2300,0,0.798896158579437,1.61714750520352,1750,-0.419291836092434,1975,-0.32962566443965,1.23435022449281,0,NaN
206993057,79,b_3,blue,blue,X,no_color_change,figure_change,not_first,update,correct,127,1135,3141,2900,0,-0.196732388024766,0.164309403932317,2125,-1.27716560170657,750,-0.0312764812270737,-0.157245426056811,2,187.5
206993057,80,b_3,blue,blue,Y,no_color_change,figure_change,not_first,update,correct,4,1012,3016,2800,0,-0.245755876483128,0.831591612636147,1625,-1.50144689925391,2175,-0.055449029952649,0.0736843212557085,0,NaN
206993057,81,b_3,blue,blue,X,no_color_change,figure_change,not_first,update,correct,16,1023,3028,2250,0,-0.12461434833007,0.655343766457216,825,-1.44014851205593,675,0.237378423947739,-0.679212660025246,0,NaN
206993057,91,b_0,blue,red,Y,no_color_change,figure_change,not_first,no_update,correct,3,506,1510,2900,0,-0.300213717461289,0.214484423253931,1500,-1.18490237936426,1050,-0.00584136632013044,-0.913059095035232,1,250
206993057,93,b_0,red,red,Y,no_color_change,figure_change,not_first,update,correct,12,515,1517,2275,0,-0.127895565873672,0.315194053531092,575,-1.0328590456117,1850,-0.876356775598352,-0.0771683646422715,1,225
206993057,96,b_1,red,red,X,no_color_change,figure_change,not_first,update,correct,10,513,1516,1425,0,-0.6749778977553,0.0272091003010184,1325,-2.11662827566328,725,-0.190775348189872,-0.0612903962727784,0,NaN
206993057,100,b_1,blue,red,Y,no_color_change,no_figure_change,not_first,no_update,correct,59,563,1565,1500,0,-0.192724843359217,0.267168593087885,425,-0.978696554616015,950,-0.182273003778628,-0.204951249492076,1,150
206993057,103,b_1,blue,red,Y,no_color_change,no_figure_change,not_first,no_update,correct,2,506,0,1875,0,-0.173164644878004,0.0917358212792044,275,-0.511722867863911,975,-0.273401514742744,-0.0516533404833429,2,125
206993057,104,b_1,blue,red,X,no_color_change,figure_change,not_first,no_update,correct,570,1074,2076,2425,0,-1.16923863961863,0.355995717594822,1025,-2.56915436965642,1500,-1.67656802497984,-1.71704206111043,0,NaN
206993057,105,b_1,blue,red,X,no_color_change,no_figure_change,not_first,no_update,correct,11,515,1517,2775,0,-0.505680318250546,0.675496879807926,1425,-1.90002625723173,725,-0.693316643000664,0.295935923802618,1,125
206993057,106,b_1,blue,red,Y,no_color_change,figure_change,not_first,no_update,correct,7,510,1513,1525,0,-0.404932602006371,0.289806884175341,950,-1.47558826531144,450,-0.0669639531637399,-0.110178876637428,0,NaN
206993057,108,b_2,red,red,Y,no_color_change,figure_change,not_first,update,correct,61,566,1568,1825,0,1.0458145246531,2.20110034593701,1850,0.0714548531253176,975,1.11265642464429,2.20110034593701,0,NaN
206993057,110,b_2,blue,red,X,no_color_change,figure_change,not_first,no_update,correct,11,514,1517,2275,0,0.52359307299647,1.47231997690524,1875,-1.00332458607791,975,-0.910909536156825,0.653290098681192,0,NaN
206993057,111,b_2,blue,red,X,no_color_change,no_figure_change,not_first,no_update,correct,61,564,1567,2225,0,0.728573502833373,1.54648375367286,50,-0.65034943820813,625,1.54648375367286,0.702130633494651,0,NaN
206993057,114,b_3,blue,red,X,no_color_change,figure_change,not_first,no_update,correct,102,607,1609,2500,0,-0.24528647696697,0.496683946640264,1525,-1.57908672848289,1825,-0.582242782741,-0.851688789510468,0,NaN
206993057,116,b_3,red,red,Y,no_color_change,figure_change,not_first,update,correct,5,509,1512,2500,0,-0.0121597639389108,1.33700964051841,1300,-1.53651107902509,175,0.437958637356216,0.0376532395355062,0,NaN
207280074,2,b_0,red,red,Y,no_color_change,figure_change,not_first,update,correct,21,1031,3037,2200,0,-0.256068855771611,1.15708009841787,1675,-1.63411874289062,475,0,0.0387888206815718,0,NaN
207280074,3,b_0,red,red,Y,no_color_change,no_figure_change,not_first,update,correct,9,1015,3019,2100,0,-1.29656911197399,-0.0702748078397613,75,-3.03179328563894,1750,-0.113732653233004,-1.0498122486318,0,NaN
207280074,4,b_0,red,red,Y,no_color_change,no_figure_change,not_first,update,correct,14,1020,0,1125,0,-0.380072941481517,0.243826846053913,900,-1.42341403795369,1125,-0.593724356070396,-1.42341403795369,0,NaN
207280074,6,b_0,blue,red,X,no_color_change,figure_change,not_first,no_update,correct,15,1023,3027,1575,0,-0.701550259142455,1.48311370435249,1500,-4.06827686543572,1375,0,-2.54210437763116,0,NaN
207280074,8,b_0,red,red,X,no_color_change,no_figure_change,not_first,update,correct,17,1026,3032,3050,0,0.627271904965437,1.77857916559359,1150,-1.04095307353786,225,-0.961260403886524,1.02610796932639,0,NaN
207280074,9,b_0,red,red,X,no_color_change,no_figure_change,not_first,update,correct,23,1029,3034,2875,0,-0.679050385551431,0.802593376077955,1350,-2.43886705345089,2325,-0.126542541544511,-1.26981509679796,0,NaN
207280074,15,b_1,red,red,Y,no_color_change,figure_change,not_first,update,correct,9,1017,3022,2800,0,0.427407737032284,2.02663606822389,2400,-1.33466266223783,825,0.33261812796389,1.86322020331542,0,NaN
207280074,16,b_1,red,red,X,no_color_change,figure_change,not_first,update,correct,22,1028,3034,2975,0,0.198074588218341,1.32253117922631,2175,-1.46651272759988,1025,-0.0565470770635672,-0.350935071063521,1,250
207280074,23,b_2,blue,red,X,no_color_change,figure_change,not_first,no_update,correct,6,1013,3018,2325,0,-0.320915636539126,0.896532557029004,2225,-1.8245511012162,1750,-0.0459719356226036,-1.60223369379126,0,NaN
207280074,24,b_2,blue,red,X,no_color_change,no_figure_change,not_first,no_update,correct,38,1045,3050,1900,0,1.28496369811731,4.0068612326899,1600,-0.481907200155001,275,0.659489763974954,2.66142389804052,0,NaN
207280074,29,b_3,red,red,X,no_color_change,no_figure_change,not_first,update,correct,5,1012,3018,2975,0,-0.492174327767587,0.587099927847,800,-1.62773375183193,1325,-0.000119718582350548,-0.438768604314693,0,NaN
207280074,30,b_3,red,red,Y,no_color_change,figure_change,not_first,update,correct,67,1073,3079,2850,0,0.0465015644319019,1.63531592871413,1875,-1.62565862973785,925,-0.406205149915349,-0.0350775446287054,0,NaN
207280074,32,b_0,blue,blue,Y,no_color_change,figure_change,not_first,update,correct,22,1029,3035,2550,0,-0.298421649503333,0.677447551327534,1325,-2.18370684826779,2525,-0.196697630801921,-1.99375336427161,0,NaN
207280074,33,b_0,blue,blue,X,no_color_change,figure_change,not_first,update,correct,9,1015,3021,2975,0,0.832618719043712,2.25473987379577,1925,-0.390841265180364,175,0.0503217107813395,0.33640921640499,0,NaN
207280074,38,b_0,blue,blue,X,no_color_change,no_figure_change,not_first,update,correct,15,1022,3028,2775,0,0.452349689513477,1.85974836442725,1825,-1.18724918117021,325,0.0620541318516915,0.416500947997495,1,150
207280074,39,b_0,blue,blue,Y,no_color_change,figure_change,not_first,update,correct,4,1011,3015,3075,0,-0.876661209552706,-0.0140868865232457,525,-1.68029020948381,2075,-1.17499797957634,-1.36846320865479,0,NaN
207280074,43,b_1,red,blue,X,no_color_change,figure_change,not_first,no_update,correct,10,1017,3023,3075,0,-1.04805095194777,0.00331221411169813,100,-2.40921675122207,1825,-0.0913053721393376,-1.19479145185829,0,NaN
207280074,44,b_1,red,blue,Y,no_color_change,figure_change,not_first,no_update,correct,22,1028,3034,3025,0,0.728780089880241,2.05600702709389,2450,-0.786511179848867,1425,0.244824500906834,0.920835429246162,0,NaN
207280074,47,b_1,red,blue,X,no_color_change,no_figure_change,not_first,no_update,correct,6,1012,3017,2900,0,-0.685534948376029,0.748320952079048,1050,-2.15940397605063,2300,-0.147293762485269,-1.7804946629112,0,NaN
207280074,51,b_2,blue,blue,X,no_color_change,no_figure_change,not_first,update,correct,113,1120,3126,2675,0,-1.55647911132302,0.679961641556895,950,-4.4828623161156,2275,-0.134204530814944,-1.52701051788101,0,NaN
207280074,52,b_2,blue,blue,X,no_color_change,no_figure_change,not_first,update,correct,9,1017,3022,2225,0,0.728428621270758,3.28795114567496,1700,-1.22579856468708,1850,-0.479672453284458,1.71401094351254,0,NaN
207280074,55,b_2,blue,blue,Y,no_color_change,no_figure_change,not_first,update,correct,15,1022,3026,3150,0,0.315282179849733,1.62565862973785,2275,-0.798522944278037,600,-0.220162472942627,-0.0431385958403077,0,NaN
207280074,58,b_3,blue,blue,Y,no_color_change,figure_change,not_first,update,correct,7,1014,3019,2500,0,-1.00269835090886,0.586820584488182,100,-2.5405480360606,2375,-0.269446622676927,-1.42784362550066,0,NaN
207280074,59,b_3,blue,blue,Y,no_color_change,no_figure_change,not_first,update,correct,17,1025,3031,2950,0,0.00927954616788847,1.39180833221315,975,-1.74190537320021,2025,0.12047680003875,0.147613012038204,0,NaN
207280074,60,b_3,blue,blue,X,no_color_change,figure_change,not_first,update,correct,5,1011,3017,3150,0,-0.136293600705022,0.776215381766721,1800,-1.30908279180893,2275,0.162737459608487,-0.520696020836573,2,175
207280074,61,b_3,blue,blue,Y,no_color_change,figure_change,not_first,update,correct,15,1023,3028,3000,0,-0.453758223190291,0.572374542217885,350,-1.78524350001111,825,-0.655978018892672,-1.02774412328519,0,NaN
207280074,63,b_3,red,blue,Y,no_color_change,figure_change,not_first,no_update,correct,14,1021,3026,2500,0,0.148979093774183,1.34866973637284,1575,-1.23633379993393,1750,-0.0460916542049541,-0.186920613243295,1,125
207280074,67,b_3,blue,blue,X,no_color_change,no_figure_change,not_first,update,correct,11,1018,3024,2525,0,-0.598189859192071,0.283932571141341,1475,-2.4770572812207,325,-0.398383535868448,0.0824861032395153,1,175
207280074,68,b_3,blue,blue,X,no_color_change,no_figure_change,not_first,update,correct,39,1045,3051,2175,0,3.44032950772098,6.344366553084,2150,0.465984628702381,75,2.00365010041259,2.68931832772819,1,125
207280074,71,b_0,red,blue,Y,no_color_change,figure_change,not_first,no_update,correct,65,1072,3077,1825,0,-0.0568969395873313,1.20436893844633,1075,-1.59908110445603,1850,-0.0901081863158325,-1.59908110445603,0,NaN
207280074,72,b_0,red,blue,Y,no_color_change,no_figure_change,not_first,no_update,correct,5,1011,3016,2350,0,0.581904056466191,1.93776497392568,675,-1.55255048211579,1550,0.467780407437638,-0.664517944433677,0,NaN
207280074,76,b_1,blue,blue,Y,no_color_change,figure_change,not_first,update,correct,20,1027,3032,2525,0,0.730500268185464,1.39436232863663,1400,-0.0862771916806154,50,-0.0862771916806154,0.552182007994762,0,NaN
207280074,79,b_2,red,blue,Y,no_color_change,figure_change,not_first,no_update,correct,22,1028,3034,2825,0,-0.347796429524292,1.03436855150858,525,-2.05205631387632,2450,-0.152481567720459,-0.560761839729884,0,NaN
207280074,80,b_2,red,blue,X,no_color_change,figure_change,not_first,no_update,correct,10,1018,3024,2575,0,-0.614010787220853,0.465625472955329,1250,-1.7186400620301,1800,-0.316336400764218,-1.5172734065165,1,150
207280074,81,b_2,red,blue,Y,no_color_change,figure_change,not_first,no_update,correct,21,1029,3033,1750,0,0.314865655088288,2.17385001832093,350,-1.72598280174759,1700,0.26334097497705,-1.05220662027881,1,125
207280074,82,b_2,red,blue,Y,no_color_change,no_figure_change,not_first,no_update,correct,22,1029,3034,2525,0,2.41789954093801,4.17474659133946,2000,-0.0334413906699149,175,0.306918538952643,2.86965441894221,0,NaN
207280074,83,b_2,red,blue,Y,no_color_change,no_figure_change,not_first,no_update,correct,21,1028,3034,2750,0,-0.831247960647738,0.530034070259914,875,-2.55335792437211,1425,0.235566263871727,0.225948871089567,0,NaN
207280074,85,b_2,blue,blue,X,no_color_change,figure_change,not_first,update,correct,885,1891,3896,2000,0,0.520693027872014,1.27013434635089,625,-0.435616014979465,1200,-0.145458077555894,0.15272100488516,0,NaN
207280074,86,b_2,blue,blue,Y,no_color_change,figure_change,not_first,update,correct,4,1011,3017,2925,0,0.465202002371157,1.539301625669,1100,-1.14067865263585,1675,0.0161221024232047,-0.315258933523063,0,NaN
207280074,87,b_2,blue,blue,X,no_color_change,figure_change,not_first,update,correct,14,1022,3026,2950,0,1.29985272385202,2.51389069839055,2050,-0.120556612426984,150,0.0901480925099492,1.30257808216789,0,NaN
207280074,88,b_2,blue,blue,Y,no_color_change,figure_change,not_first,update,correct,176,1182,3187,2700,0,-1.30564620984955,-0.119638769962296,75,-2.5028765888143,2350,-0.155993312802741,-1.884250767615,0,NaN
207280074,90,b_3,blue,blue,X,no_color_change,figure_change,not_first,update,correct,17,1025,3030,2750,0,0.130764268187172,0.993185359179999,1700,-0.983089092068437,1750,-0.191988699896134,-0.904952763987658,0,NaN
207280074,92,b_3,red,blue,Y,no_color_change,figure_change,not_first,no_update,correct,15,1021,0,2325,0,1.90484453259418,3.40635282361964,1900,0.217408945548563,50,0.217408945548563,2.31843015960625,0,NaN
207280074,93,b_3,red,blue,Y,no_color_change,no_figure_change,not_first,no_update,correct,525,1533,3538,2300,0,1.41810081325127,3.14297194244847,850,-1.40785062224812,2125,2.50048221716729,-0.528597447271708,0,NaN
207280074,95,b_3,blue,blue,Y,no_color_change,figure_change,not_first,update,correct,13,1021,3025,2525,0,-0.0509133201091217,0.571895667888483,1450,-1.17707310167041,425,0.104155166644961,-0.445871906867491,1,175
207280074,97,b_3,red,blue,Y,no_color_change,no_figure_change,not_first,no_update,correct,11,1019,3024,2550,0,-0.528464294921041,0.871591185705977,2500,-1.80627406431068,1775,-0.162817271996721,0.694168246662491,0,NaN
207280074,100,b_0,blue,blue,X,no_color_change,no_figure_change,not_first,update,correct,16,1024,3028,2725,0,-1.71466261553686,0.123310139821046,125,-3.07648822304981,2400,-0.451937648373252,-2.11379119617508,0,NaN
207280074,102,b_0,red,blue,Y,no_color_change,no_figure_change,not_first,no_update,correct,5,1012,3018,2725,0,-0.0117408860206192,1.2042891260581,1450,-1.54325233888657,1950,-1.08720435251928,0.390482109433313,1,125
207280074,105,b_1,blue,blue,Y,no_color_change,no_figure_change,not_first,update,correct,24,1031,3038,2425,0,0.735084566317917,1.80599472095187,1600,-0.479672453284458,775,0.0917842464687398,1.30185977067378,0,NaN
207280074,109,b_1,red,blue,X,no_color_change,figure_change,not_first,no_update,correct,22,1028,3033,2675,0,0.917521665379352,2.50407377463781,900,-0.61567276283466,350,-0.21605213494859,2.04000464325303,0,NaN
207280074,112,b_1,red,blue,Y,no_color_change,figure_change,not_first,no_update,correct,22,1030,3035,2975,0,0.508330912242019,2.72651090064509,2250,-1.51651518882828,1150,-0.0601785407281998,2.41943273691598,0,NaN
207280074,113,b_1,red,blue,X,no_color_change,figure_change,not_first,no_update,correct,15,1022,3027,2650,0,-1.5256998124956,0.341916271193114,2550,-3.7026563149372,975,-0.136997964403123,0.338883400440234,0,NaN
207280074,114,b_1,red,blue,X,no_color_change,no_figure_change,not_first,no_update,correct,22,1029,3034,2875,0,-1.24443396711798,-0.0205915961642911,150,-2.41695855288074,1100,-0.0277348049112061,-1.17008951769997,0,NaN
207280074,117,b_1,red,blue,Y,no_color_change,figure_change,not_first,no_update,correct,15,1022,3028,2475,0,-0.974808963995255,0.941865993545738,425,-3.15622079889526,1200,-1.56216787489795,-2.20170454181448,0,NaN
207280074,118,b_1,red,blue,Y,no_color_change,no_figure_change,not_first,no_update,correct,30,1037,3043,2100,0,0.588341770602018,3.48564643132981,2125,-1.82239616673389,1600,-0.161699898561449,3.48564643132981,0,NaN
207280074,120,b_2,blue,blue,X,no_color_change,figure_change,not_first,update,correct,22,1029,3034,2275,0,-0.923995473584689,0.469336749008193,1400,-3.32139253634488,2250,0.0561081089282818,-1.38614165264856,0,NaN
207280074,121,b_2,blue,blue,Y,no_color_change,figure_change,not_first,update,correct,13,1021,3026,3025,0,1.94826960150908,3.95953248646732,2100,-0.501820391019306,450,0.504214762666316,3.63198244515627,0,NaN
207280074,125,b_2,red,blue,X,no_color_change,figure_change,not_first,no_update,correct,10,1016,3022,2975,0,-0.242275928626246,0.747802171555529,625,-2.00217357123027,2325,0.360951525786849,-0.71037016147393,1,250
207280074,129,b_3,blue,blue,Y,no_color_change,no_figure_change,not_first,update,correct,156,1163,3170,3025,0,-0.539064299574267,0.557888593753471,1500,-2.13039217292769,750,0.223793936607258,-1.20301212784636,1,150
207280074,133,b_3,red,blue,X,no_color_change,figure_change,not_first,no_update,correct,19,1027,3031,3375,0,0.193020836800282,1.15153313743563,1175,-1.10432410979541,2525,0.16636892327312,-0.69392880949779,0,NaN
207280074,137,b_0,red,red,Y,no_color_change,figure_change,not_first,update,correct,68,572,1575,3025,0,0.282230165151541,1.76289603130567,2075,-1.35102420182573,850,0.163375958714357,0.876379928999996,0,NaN
207280074,142,b_1,blue,red,X,no_color_change,figure_change,not_first,no_update,correct,12,515,1518,3125,0,0.120205205455489,0.939351903316377,1600,-1.44612066240617,2325,-0.00917842464687399,-0.51187675193675,1,225
207280074,143,b_1,blue,red,Y,no_color_change,figure_change,not_first,no_update,correct,5,508,1511,2600,0,-0.472234984785778,0.634867642204862,1050,-2.69674087983393,2550,0.131171660062064,-2.54445884308405,1,150
207280074,144,b_1,blue,red,X,no_color_change,figure_change,not_first,no_update,correct,61,564,1567,2350,0,1.4195866518573,2.41879423781011,900,-0.5982337560056,100,-0.250371461889076,1.63423846147297,1,250
207280074,146,b_1,red,red,X,no_color_change,no_figure_change,not_first,update,correct,10,513,0,1925,0,-0.428331034227133,0.295385648852875,550,-2.00045760488324,150,-0.254721237047812,-0.841501915341877,0,NaN
207280074,150,b_1,blue,red,Y,no_color_change,no_figure_change,not_first,no_update,correct,16,520,1523,1525,0,1.01571905679131,2.68401080391065,575,-1.1692115814294,150,-1.1692115814294,-0.973312074509811,1,125
207280074,152,b_2,red,red,X,no_color_change,no_figure_change,not_first,update,correct,5,508,1511,3075,0,0.314289561700924,1.4611253913941,1300,-1.28637616735645,1975,0.198852565284231,-0.217768101295615,0,NaN
207280074,154,b_2,blue,red,Y,no_color_change,no_figure_change,not_first,no_update,correct,3,506,1509,2775,0,0.264244482206957,1.74693355365894,525,-1.60115622655011,2075,-0.662562540921951,0.367855297369062,0,NaN
207280074,155,b_2,blue,red,X,no_color_change,figure_change,not_first,no_update,correct,11,515,1517,3100,0,-1.37042868557474,0.195979319307818,50,-2.46229198939747,2250,0.195979319307818,-0.843337600271252,0,NaN
207280074,157,b_2,red,red,X,no_color_change,no_figure_change,not_first,update,correct,59,563,1565,2250,0,-0.471184405795805,1.34882936114931,300,-2.72575268295687,1825,-0.0649672840222211,-0.109821846209553,1,125
207280074,158,b_2,red,red,Y,no_color_change,figure_change,not_first,update,correct,3,507,1509,2400,0,0.274209593220581,1.98916415194818,625,-1.49839777669924,925,0.0123709201762214,0.813288236101269,1,225
207280074,159,b_2,red,red,X,no_color_change,figure_change,not_first,update,correct,8,511,1514,2750,0,-0.175057237866035,1.50765601373434,1175,-2.07352584631118,850,0.592527170246891,-0.410195769327033,0,NaN
207280074,160,b_2,red,red,Y,no_color_change,figure_change,not_first,update,correct,70,573,1575,1925,0,1.89429169813738,3.25850037441673,1050,-0.117164585927052,700,0.359235559439825,0.193066167137288,0,NaN
207280074,161,b_2,red,red,Y,no_color_change,no_figure_change,not_first,update,correct,43,546,1549,2675,0,0.709697104426763,2.78265891576749,1175,-2.18550262700305,200,-2.18550262700305,1.50621939074614,1,175
207280074,165,b_3,red,red,X,no_color_change,no_figure_change,not_first,update,correct,913,1416,2418,2950,0,1.36513510955321,4.16357285698674,125,-1.01541310930308,950,3.47136001383598,0.723180049785436,0,NaN
207280074,166,b_3,red,red,Y,no_color_change,figure_change,not_first,update,correct,11,514,1516,2850,0,-0.425758797593825,0.678325487598104,1950,-1.93952084646682,975,0.0482066824931469,-0.335571186328536,0,NaN
207280074,169,b_3,red,red,X,no_color_change,no_figure_change,not_first,update,correct,11,514,1516,3000,0,-1.71092092553993,0.125584792885706,75,-3.91719201450935,1100,0.101720888803832,-1.86753007228004,0,NaN
207280074,170,b_3,red,red,X,no_color_change,no_figure_change,not_first,update,correct,6,510,1513,2625,0,0.881960597155911,2.30861323585351,1775,-0.876619366164699,2425,1.29571421677979,-0.0233850297524703,0,NaN
207280074,175,b_3,red,red,Y,no_color_change,figure_change,not_first,update,correct,7,512,1514,2750,0,-1.98696543688397,-0.288322252494194,50,-3.77301093516519,675,-0.288322252494194,-2.09519490971663,1,175
207280074,180,b_0,red,red,X,no_color_change,figure_change,not_first,update,correct,21,1029,3034,1975,0,1.18246964699791,2.14906827177437,1125,-0.255838610483083,1900,0.00303287075288017,0.147892355397022,0,NaN
207280074,181,b_0,red,red,X,no_color_change,no_figure_change,not_first,update,correct,21,1028,3034,2425,0,0.374666914441151,1.76393359235271,900,-1.52984385766331,2025,0.0394672259815582,-0.287564034805974,0,NaN
207280074,184,b_1,blue,red,Y,no_color_change,no_figure_change,not_first,no_update,correct,23,1029,3036,1175,0,-0.507564280394254,0.465146598625927,150,-1.64058354633755,750,0.208669489036974,-1.02594834454993,0,NaN
207280074,185,b_1,blue,red,X,no_color_change,figure_change,not_first,no_update,correct,309,1317,3323,1500,0,-0.0699981699856269,0.95970406231597,950,-1.84466382305108,1400,0.800957222119167,-1.61145202463225,1,225
207280074,186,b_1,blue,red,Y,no_color_change,figure_change,not_first,no_update,correct,22,1029,3034,1950,0,1.20100556254731,2.66002718124643,1275,-0.599630472799689,100,-0.381223872398205,1.17164585927052,0,NaN
207280074,187,b_1,blue,red,X,no_color_change,figure_change,not_first,no_update,correct,7,1014,3019,1750,0,-0.513061395813533,1.22998871506935,1700,-3.01180028238641,400,-0.16106139945558,1.11430065832462,0,NaN
207280074,191,b_2,blue,red,X,no_color_change,no_figure_change,not_first,no_update,correct,5,1012,3018,1050,0,-0.423648907481805,1.25504980497473,400,-1.98054441401894,350,-0.102119950745002,1.098378086872,0,NaN
207280074,192,b_2,blue,red,X,no_color_change,no_figure_change,not_first,no_update,correct,14,1021,3027,2200,0,0.220629783545323,1.34679414524935,2200,-1.29228228408574,600,0.294906774523473,1.03041783829101,0,NaN
207280074,195,b_2,blue,red,Y,no_color_change,figure_change,not_first,no_update,correct,25,1032,3038,1725,0,0.123312453223604,1.07367615271367,900,-1.48123811322899,1625,-0.364543083257365,-1.41631073540089,0,NaN
207280074,198,b_3,blue,red,X,no_color_change,figure_change,not_first,no_update,correct,15,1021,3026,2525,0,0.0936642272735843,1.25832211289231,1325,-1.31287388025003,550,0.425958716003187,0.1165659930153,0,NaN
207280074,201,b_3,blue,red,X,no_color_change,no_figure_change,not_first,no_update,correct,22,1030,3036,2525,0,1.46839230934278,2.32206162327088,1125,-0.158188153479167,2125,0.207991083736988,1.8826146136562,0,NaN
207280074,202,b_3,blue,red,X,no_color_change,no_figure_change,not_first,no_update,correct,12,1018,3025,1875,0,-1.08614683837519,-0.0964931773745274,125,-2.02128863821224,600,-0.558686717635808,-1.56388384124498,1,125
207280074,204,b_3,red,red,X,no_color_change,figure_change,not_first,update,correct,22,1029,3033,2475,0,0.493688485952843,1.98114300693069,1825,-1.1779909441351,2450,0.136399371491371,-1.08042029951942,1,225
207280074,207,b_3,red,red,Y,no_color_change,figure_change,not_first,update,correct,20,1027,3034,2225,0,0.466728498096087,1.42572859721246,625,-0.844095817959472,775,-0.176465190384682,-0.627006121963844,1,175
207280074,208,b_3,red,red,X,no_color_change,figure_change,not_first,update,correct,6,1013,3018,2850,0,0.835628299533566,1.76999933385847,1850,-0.106788975456673,200,-0.106788975456673,0.616750230075815,1,175
207280074,209,b_3,red,red,Y,no_color_change,figure_change,not_first,update,correct,15,1023,3030,2900,0,-0.550549108521706,0.293270620564682,350,-2.65172669287013,2350,0.169601324996585,-1.93446074105281,1,125
207280074,210,b_3,red,red,Y,no_color_change,no_figure_change,not_first,update,correct,5,1012,3017,2275,0,0.235232542841804,1.65211643643732,1525,-1.38330831286626,2125,-0.0347183888816538,-1.03101643120277,1,150
207601006,2,b_0,blue,blue,Y,no_color_change,no_figure_change,not_first,update,correct,17,1024,3030,2325,0,0.324568236750248,1.74873048415447,350,-1.04105770300897,1950,0,-0.566331233332531,1,125
207601006,4,b_0,red,blue,X,no_color_change,no_figure_change,not_first,no_update,correct,132,1138,3144,850,0,0.852778429743651,3.11645493146542,675,-2.03467987605339,750,0,2.03464275905029,0,NaN
207601006,7,b_0,red,blue,X,no_color_change,figure_change,not_first,no_update,correct,5,1013,3017,3000,0,-0.488156521912094,0.740261509869183,1750,-1.4706870139163,2425,-0.840811471272895,0.192451661084623,0,NaN
207601006,11,b_0,blue,blue,Y,no_color_change,no_figure_change,not_first,update,correct,3,1011,3015,1850,0,-0.555217700390177,1.98616795299889,1025,-2.6126287313569,1600,-1.09157394423099,0.0891550414513527,0,NaN
207601006,16,b_1,red,blue,X,no_color_change,figure_change,not_first,no_update,correct,23,1032,3037,1600,0,1.39064129696065,3.7407629236435,150,-0.427439407724304,800,3.32171195862028,0.260561361777059,0,NaN
207601006,20,b_1,blue,blue,Y,no_color_change,no_figure_change,not_first,update,correct,13,1020,3026,2400,0,-1.6855405445469,1.51797407586843,350,-3.34353675644434,2000,-1.87433442265213,-1.02706459283946,1,225
207601006,22,b_1,red,blue,Y,no_color_change,no_figure_change,not_first,no_update,correct,22,1028,3033,1250,0,-0.777206003263729,0.554490909342947,1075,-1.98598236798338,300,-1.44425970770757,-0.754625790069714,1,150
207601006,23,b_1,red,blue,Y,no_color_change,no_figure_change,not_first,no_update,correct,23,1029,3035,2025,0,-0.385006883190247,2.70902158841317,450,-2.32074061896163,1350,0.70110307159642,-0.587673510116265,0,NaN
207601006,24,b_1,red,blue,Y,no_color_change,no_figure_change,not_first,no_update,correct,10,1017,3022,2850,0,0.128363343980809,1.33988669498434,1750,-1.36315905592938,275,-1.19698623304108,-0.326926563323695,1,200
207601006,25,b_1,red,blue,X,no_color_change,figure_change,not_first,no_update,correct,21,1029,3033,3325,0,-0.805650464202151,0.976993755654666,2425,-2.23422088473053,1475,-0.527878018118709,-0.445700973250559,1,250
207601006,28,b_1,red,blue,Y,no_color_change,no_figure_change,not_first,no_update,correct,6,1015,3020,2925,0,1.20054736437645,3.26577663494535,300,-0.114283252551507,425,0.0248312750753351,1.27337302542529,1,200
207601006,29,b_1,red,blue,Y,no_color_change,no_figure_change,not_first,no_update,correct,90,1096,3102,3250,0,0.326050812146728,2.01716065058918,1225,-0.694199309019421,2650,0.324217022097238,-0.489276334892478,0,NaN
207601006,30,b_1,red,blue,Y,no_color_change,no_figure_change,not_first,no_update,correct,3,1011,3015,2850,0,0.752877789319847,3.58372088351832,75,-1.38030711136257,2650,0.984936794318524,1.58612089356397,0,NaN
207601006,31,b_1,red,blue,X,no_color_change,figure_change,not_first,no_update,correct,16,1023,3028,3275,0,-0.631097252302115,2.23830375507176,250,-2.91223718039741,500,-1.81817639695858,0.0325144947174791,0,NaN
207601006,35,b_2,blue,blue,X,no_color_change,figure_change,not_first,update,correct,14,1021,3027,3275,0,-0.305114021113865,0.939579816527703,1475,-1.38045557937498,850,0.908067480893982,-0.419273667041832,0,NaN
207601006,39,b_2,red,blue,X,no_color_change,figure_change,not_first,no_update,correct,10,1017,3021,2825,0,0.209093034409429,1.92833966216575,175,-0.893406264668634,1650,0.133435626152212,-0.6799834968313,1,175
207601006,40,b_2,red,blue,Y,no_color_change,figure_change,not_first,no_update,correct,23,1029,3034,2950,0,-0.877289781793358,1.51374273751479,1400,-2.89946893133027,2475,-1.44355448464863,0.0659569145125121,0,NaN
207601006,42,b_3,blue,blue,X,no_color_change,figure_change,not_first,update,correct,15,1024,3029,2325,0,0.173614782010284,2.00784428281054,1925,-1.54948641150215,2225,-0.292147931416985,-0.264792700130704,1,125
207601006,43,b_3,blue,blue,Y,no_color_change,figure_change,not_first,update,correct,19,1026,3032,2700,0,2.03975440066619,3.84276044816819,2000,-0.379001718676004,2175,2.58096792771077,2.70813078033872,0,NaN
207601006,48,b_4,blue,blue,X,no_color_change,figure_change,not_first,update,correct,20,1028,3033,2800,0,1.63902487859876,4.22747818532193,1950,-0.543875446455733,375,0.0133621211167723,0.51128671773205,0,NaN
207601006,53,b_4,blue,blue,Y,no_color_change,no_figure_change,not_first,update,correct,15,1021,3027,3075,0,0.120905486161578,1.43820963620192,1625,-0.817501993324748,425,-0.402051377602437,0.11005191419786,0,NaN
207601006,58,b_0,blue,red,Y,no_color_change,no_figure_change,not_first,no_update,correct,12,1019,3024,3250,0,0.476850542703018,1.65749689052939,1900,-0.556977748550791,2600,-0.12890735177375,0.216837532122732,0,NaN
207601006,61,b_0,blue,red,Y,no_color_change,figure_change,not_first,no_update,correct,22,1028,3033,3175,0,1.42148037261505,3.01627614009273,1925,0.00115062709616653,150,0.129018702783057,1.95595471247374,0,NaN
207601006,62,b_0,blue,red,X,no_color_change,figure_change,not_first,no_update,correct,9,1016,3021,3275,0,0.0897938040651162,0.477094534474353,2675,-0.299200162006392,1700,-0.233800002540412,0.477094534474353,2,212.5
207601006,63,b_0,blue,red,X,no_color_change,no_figure_change,not_first,no_update,correct,20,1027,3033,3225,0,-0.402110554711156,0.660200134177856,625,-1.2163984256635,1025,0.0833647889674181,-0.222442199591156,1,125
207601006,64,b_0,blue,red,X,no_color_change,no_figure_change,not_first,no_update,correct,7,1014,3020,2650,0,0.429214307463122,2.63560415627712,1925,-1.03838527878561,600,1.82274178834015,1.31034156051503,0,NaN
207601006,65,b_0,blue,red,X,no_color_change,no_figure_change,not_first,no_update,correct,17,1025,3030,3075,0,0.316822509710356,1.09951698289485,575,-0.385088907184756,1125,-0.0404946503844403,0.0629133202581361,1,125
207601006,66,b_0,blue,red,X,no_color_change,no_figure_change,not_first,no_update,correct,4,1012,3017,3000,0,0.213493325159269,0.831272401475643,2150,-0.624827630221512,1325,-0.102108875534001,0.319725864721879,1,300
207601006,67,b_0,blue,red,X,no_color_change,no_figure_change,not_first,no_update,correct,15,1021,3026,2975,0,0.443881189617334,1.91137719174807,1000,-0.832868432609036,600,0.879969909545658,0.527766667109402,0,NaN
207601006,69,b_1,red,red,Y,no_color_change,figure_change,not_first,update,correct,7,1016,3022,2950,0,-0.0720472544649234,1.65820211358834,2450,-1.02138569136483,1050,-0.358179079935701,-0.167694620015492,0,NaN
207601006,70,b_1,red,red,X,no_color_change,figure_change,not_first,update,correct,20,1026,3032,2725,0,-1.53207258432033,0.594391687677753,900,-2.8877028413469,2550,-0.438945678685969,-1.81375947358943,0,NaN
207601006,75,b_2,red,red,Y,no_color_change,figure_change,not_first,update,correct,6,1014,3019,2875,0,-0.39209176515683,1.00100845666175,1750,-1.90970692660847,2600,0.0939802518546316,-1.29519782324936,0,NaN
207601006,76,b_2,red,red,Y,no_color_change,no_figure_change,not_first,update,correct,14,1020,3026,3100,0,-1.34225132821027,-0.196089127388633,2225,-1.95135220408908,1325,-1.75036363229096,-1.54948641150215,1,275
207601006,77,b_2,red,red,Y,no_color_change,no_figure_change,not_first,update,correct,4,1012,3018,2800,0,0.0791014109365674,1.31628028101137,1800,-1.12074790866927,675,0.352574412467277,0.0777230044958921,1,225
207601006,84,b_3,red,red,Y,no_color_change,no_figure_change,not_first,update,correct,11,1019,3025,2775,0,0.792122016892233,3.00347077402249,2000,-1.34846072270093,2025,1.99340576860381,0.258000288563011,0,NaN
207601006,86,b_3,blue,red,Y,no_color_change,figure_change,not_first,no_update,correct,6,1013,3018,2650,0,0.568133508945427,1.94522789857723,125,-0.618443505687941,2300,1.32890006206611,0.313044804163495,1,300
207601006,88,b_3,red,red,Y,no_color_change,no_figure_change,not_first,update,correct,4,1011,3016,3000,0,-0.151626984516939,1.01192085557378,1600,-1.09075737016274,100,-1.02094028732761,-0.479366095064205,0,NaN
207601006,89,b_3,red,red,X,no_color_change,figure_change,not_first,update,correct,16,1023,3029,2775,0,0.793547594941972,1.78762910340552,250,-0.0214907447961421,100,0.595134027739796,0.232903892036947,1,350
207601006,90,b_3,red,red,Y,no_color_change,figure_change,not_first,update,correct,2,1009,3014,2625,0,0.764078253526393,2.96780133404132,1775,-1.10861064865487,650,-0.138372187564797,1.45442976655756,0,NaN
207601006,91,b_3,red,red,Y,no_color_change,no_figure_change,not_first,update,correct,15,1021,3026,3300,0,0.670585366597715,2.59347635775619,1700,-0.497924596615277,1450,-0.239330436002632,0.247347708672696,1,375
207601006,92,b_3,red,red,Y,no_color_change,no_figure_change,not_first,update,correct,22,1030,3036,2800,0,0.0536148106602354,1.81316560153979,1175,-1.33149825228325,2075,0.340734088477693,-0.637670113294854,0,NaN
207601006,94,b_3,blue,red,X,no_color_change,no_figure_change,not_first,no_update,correct,22,1031,3036,3075,0,0.22170717399094,1.29582881230209,2425,-0.826521425078569,2475,-0.198724434608885,-0.142966447726551,1,225
207601006,96,b_3,red,red,Y,no_color_change,no_figure_change,not_first,update,correct,22,1028,3034,2625,0,0.150766438638773,3.02629773093031,125,-1.53063097392626,1200,0.876332443241648,2.11351639064235,1,125
207601006,97,b_3,red,red,X,no_color_change,figure_change,not_first,update,correct,9,1015,3020,1775,0,1.17155376707043,2.97975300904022,1150,0.0440578826822464,825,0.152328180731204,0.836357430900637,0,NaN
207601006,99,b_3,blue,red,Y,no_color_change,no_figure_change,not_first,no_update,correct,21,1028,0,1500,0,2.14645867454813,4.00707742090139,975,0.412444138471037,425,0.725860112665551,2.55331576039967,0,NaN
207601006,103,b_3,red,red,Y,no_color_change,no_figure_change,not_first,update,correct,644,1652,120,1175,0,1.42564714443459,3.67569681720544,350,0.054005239513619,75,2.69669874338326,0.833165368633853,0,NaN
207601006,104,b_3,red,red,Y,no_color_change,no_figure_change,not_first,update,correct,578,1586,3590,1175,0,0.692529850771196,2.26098224396717,1175,-0.707747015151704,225,-0.505793401272932,2.26098224396717,0,NaN
207601006,105,b_3,red,red,X,no_color_change,figure_change,not_first,update,correct,424,1431,3435,1300,0,1.13851981526999,3.17350376523341,750,-0.185956185541747,475,1.72375074106672,0.489276334892478,0,NaN
208827162,3,b_0,red,blue,Y,no_color_change,figure_change,not_first,no_update,correct,11,1018,3022,3000,0,-0.0839051120082509,0.765191319435518,2225,-1.44880062300146,2325,0,-0.659074712028695,1,225
208827162,4,b_0,red,blue,X,no_color_change,figure_change,not_first,no_update,correct,22,1029,3035,3175,0,-1.8133027712952,0.479534290339254,1325,-3.37791536443505,150,-3.37791536443505,-2.02179431093248,1,125
208827162,5,b_0,red,blue,Y,no_color_change,figure_change,not_first,no_update,correct,9,1016,3021,2875,0,-0.638021228107941,0.578452484581115,275,-2.01123663829053,2075,-0.261332391276327,0.0629261284170476,1,175
208827162,9,b_1,blue,blue,Y,no_color_change,figure_change,not_first,update,correct,8,1016,3021,2475,0,1.15728582270598,2.54094986706721,400,-0.433074532037059,2425,0,-0.433074532037059,0,NaN
208827162,11,b_1,red,blue,Y,no_color_change,no_figure_change,not_first,no_update,correct,10,1017,3023,2875,0,0.313030682284119,1.93868263226535,2375,-0.904390634012981,1850,0.790325778736512,0.896742320025208,1,125
208827162,16,b_2,blue,blue,X,no_color_change,no_figure_change,not_first,update,correct,23,1030,3036,2350,0,0.744938364689402,2.27451859979904,2325,-0.909129589346581,300,0.0723740456960608,1.94840049003805,1,125
208827162,18,b_2,red,blue,Y,no_color_change,figure_change,not_first,no_update,correct,21,1030,3035,2600,0,-0.505001801221579,0.515916270210503,1550,-1.24991446593118,2400,-0.0137669651779908,-1.14994650310277,0,NaN
208827162,19,b_2,red,blue,X,no_color_change,figure_change,not_first,no_update,correct,8,1016,3022,2475,0,0.660519021301355,1.26950014841752,1500,-0.352782231859539,125,-0.172551962241789,0.419427540411817,0,NaN
208827162,22,b_2,red,blue,X,no_color_change,figure_change,not_first,no_update,correct,17,1025,3031,2550,0,-0.343826393605474,0.923676382617443,1650,-1.50710776963766,2250,-0.32464843373981,-0.91458838599668,0,NaN
208827162,23,b_2,red,blue,X,no_color_change,no_figure_change,not_first,no_update,correct,4,1010,3015,2575,0,-0.139297417951326,1.2245100661365,1800,-0.945601549382391,700,-0.344803990601706,-0.185449119162347,0,NaN
208827162,24,b_2,red,blue,X,no_color_change,no_figure_change,not_first,no_update,correct,16,1025,3031,2625,0,1.17341632935936,2.53690075966192,1600,-0.709793531453494,2425,0.989031975477665,-0.709793531453494,0,NaN
208827162,25,b_2,red,blue,X,no_color_change,no_figure_change,not_first,no_update,correct,31,1040,3045,2500,0,-0.000909487010555828,1.4524898097485,2425,-1.58934964004735,950,-0.0310731501620882,1.4524898097485,0,NaN
208827162,26,b_2,red,blue,X,no_color_change,no_figure_change,not_first,no_update,correct,12,1018,3024,2825,0,-0.739618286601933,0.264841617694247,100,-1.70245470690183,1650,0.264841617694247,-1.41177003611066,1,200
208827162,27,b_2,red,blue,Y,no_color_change,figure_change,not_first,no_update,correct,22,1028,3033,2150,0,0.22440076512853,1.89618200120388,2125,-1.42147664636279,1050,0.370778264771945,1.7636712121922,0,NaN
208827162,28,b_2,red,blue,Y,no_color_change,no_figure_change,not_first,no_update,correct,12,1019,3025,2675,0,-0.259715905512967,0.770350182203741,1425,-1.30753176463907,2425,-0.203565125627503,-1.30753176463907,0,NaN
208827162,32,b_3,blue,blue,X,no_color_change,no_figure_change,not_first,update,correct,22,1029,3034,1925,0,-0.785715873902086,1.38035571115794,1675,-3.55463640763488,1250,0.929225159432102,-2.55357708349409,0,NaN
208827162,33,b_3,blue,blue,Y,no_color_change,figure_change,not_first,update,correct,40,1049,0,1025,0,1.50779911723538,3.47890310246183,650,-1.54528935280015,1000,1.75365342053762,2.17431068986512,0,NaN
208827162,34,b_3,blue,blue,Y,no_color_change,no_figure_change,not_first,update,correct,654,1660,3666,1775,0,-0.390646313584216,1.88676407731306,1225,-2.5464386571055,675,0.154675902882133,-0.587390514260943,0,NaN
208827162,35,b_3,blue,blue,Y,no_color_change,no_figure_change,not_first,update,correct,23,1032,3039,3200,0,0.749135327605917,1.69432649870306,1575,-0.592909297687414,50,-0.592909297687414,0.74359607994063,1,150
208827162,49,b_1,red,red,X,no_color_change,no_figure_change,not_first,update,correct,25,1032,3038,2375,0,0.012518729703641,1.15915447327628,1450,-0.777338641651392,175,-0.135390154277671,-0.466127245819512,1,125
208827162,50,b_1,red,red,X,no_color_change,no_figure_change,not_first,update,correct,142,1149,3154,2775,0,0.181239422157803,0.929525093313975,100,-0.517625893337181,1450,0.248045320309334,0.35977069130719,2,162.5
208827162,52,b_1,blue,red,Y,no_color_change,figure_change,not_first,no_update,correct,13,1022,3027,2550,0,-0.477544104060573,0.728329445353272,800,-1.40612003161087,2125,-0.723440523078735,-1.1247520570254,1,350
208827162,56,b_2,blue,red,Y,no_color_change,figure_change,not_first,no_update,correct,1638,2645,1115,100,0,-1.0400607265804,-0.545279797245912,100,-1.29187521600528,75,-1.28302716649001,-0.545279797245912,0,NaN
208827162,61,b_3,blue,red,Y,no_color_change,no_figure_change,not_first,no_update,correct,9,1016,3022,2300,0,0.113327545283336,1.11752365047225,1550,-0.964407403775856,2250,-0.188118530711021,-0.611385224810818,0,NaN
208827162,62,b_3,blue,red,Y,no_color_change,no_figure_change,not_first,no_update,correct,20,1026,3032,3000,0,1.02306759758551,1.99066117399402,825,0.283587485311337,150,0.726979742884842,0.620803148701644,1,250
208827162,63,b_3,blue,red,X,no_color_change,figure_change,not_first,no_update,correct,21,1028,3034,3300,0,0.831574185841157,2.39035306497856,1475,-0.626291938739928,1275,0.866448997955991,0.660094487227065,1,125
208827162,65,b_3,red,red,X,no_color_change,no_figure_change,not_first,update,correct,5,1012,3016,2850,0,-0.107401480416411,1.60839544154632,2325,-1.91549774319653,2125,-0.836095689110399,0.362050188809428,0,NaN
208827162,67,b_3,blue,red,X,no_color_change,figure_change,not_first,no_update,correct,3,1009,3015,1725,0,0.67148425585159,1.21104303484038,850,-0.0401311533946662,1525,0.361450321045681,0.263431928449442,0,NaN
208827162,70,b_3,blue,red,X,no_color_change,figure_change,not_first,no_update,correct,22,1028,3033,2800,0,0.613208729083271,2.68122894361942,2400,-1.28791608876455,2425,0.623322593309381,-1.28791608876455,1,350
208827162,73,b_3,blue,red,X,no_color_change,figure_change,not_first,no_update,correct,135,1142,3147,2150,0,-1.18610300326752,-0.409979623132804,1700,-2.39245260215167,625,-2.30502187558557,-0.493451222458182,1,125
208827162,77,b_0,blue,red,X,no_color_change,no_figure_change,not_first,no_update,correct,24,1032,3036,3100,0,0.70072178125133,1.57087371292395,1650,-0.267481035854733,2125,0.377736730831409,0.705444490166329,0,NaN
208827162,78,b_0,blue,red,Y,no_color_change,figure_change,not_first,no_update,correct,13,1020,3025,2475,0,0.837824058104694,1.99659986485511,2425,-0.0496690508382416,1950,1.06140602117373,1.99659986485511,0,NaN
208827162,81,b_1,blue,red,X,no_color_change,no_figure_change,not_first,no_update,correct,12,1018,3025,3075,0,-1.13875928174001,0.308272043789521,525,-2.35769026524254,1200,-1.31847935132745,-1.54693898915045,2,125
208827162,82,b_1,blue,red,X,no_color_change,no_figure_change,not_first,no_update,correct,22,1029,3033,2675,0,0.336069041154396,1.43992258009801,250,-0.743716053493379,2425,0.300803690130872,-0.743716053493379,0,NaN
208827162,83,b_1,blue,red,X,no_color_change,no_figure_change,not_first,no_update,correct,10,1017,3024,2725,0,-0.42120027462614,1.15582520718748,800,-2.14344749342034,250,-0.968636471510272,-0.633100437858455,1,175
208827162,86,b_2,blue,red,Y,no_color_change,no_figure_change,not_first,no_update,correct,114,1120,3125,2325,0,-0.446092640555633,1.16797252940336,1875,-1.77359902368221,825,-0.229359439468619,0.388054456367856,0,NaN
208827162,87,b_2,blue,red,Y,no_color_change,no_figure_change,not_first,no_update,correct,22,1030,3036,2925,0,-0.820093427212762,0.892633225843542,175,-2.52448349695236,575,0.0410009616520991,0.179000540702068,1,200
208827162,90,b_3,red,red,X,no_color_change,no_figure_change,not_first,update,correct,318,1324,3330,1100,0,-0.20919502092385,1.32753735456003,250,-1.3465531626708,1100,1.08687040774478,-0.994010877916764,0,NaN
208827162,91,b_3,red,red,Y,no_color_change,figure_change,not_first,update,correct,16,1025,3029,2600,0,0.312026716100773,1.12631171321114,1750,-0.416398208204895,2125,0.565135420225934,-0.15937286747227,1,125
208827162,93,b_3,blue,red,Y,no_color_change,no_figure_change,not_first,no_update,correct,16,1023,3029,2700,0,0.843050007148092,1.57891194095816,1450,0.0989953200971988,100,0.0989953200971988,1.24979449237843,1,150
208827162,95,b_3,red,red,Y,no_color_change,figure_change,not_first,update,correct,65,1072,3078,2850,0,-0.0784706704918291,1.11161495299934,300,-1.12697156775126,1050,0.0928895232162039,-0.498700065390967,0,NaN
208827162,100,b_0,blue,blue,Y,no_color_change,no_figure_change,not_first,update,correct,14,1021,3026,1775,0,1.02368701209666,1.74336568838937,725,0.176241148988833,75,0.18631892741978,0.256353488837228,0,NaN
208827162,101,b_0,blue,blue,X,no_color_change,figure_change,not_first,update,correct,10,1019,3025,3000,0,-0.386858157582758,0.848063050997149,2100,-1.37864608803126,2200,-0.0756733183966687,-1.24343589408272,1,175
208827162,103,b_0,red,blue,X,no_color_change,no_figure_change,not_first,no_update,correct,8,1015,0,1475,0,0.0368576644839036,1.49094133340468,1025,-1.34574334118975,75,-1.34574334118975,0.296964536442892,0,NaN
208827162,109,b_1,blue,blue,Y,no_color_change,no_figure_change,not_first,update,correct,145,1152,3158,2875,0,-0.878593288925187,0.317030113140225,2350,-1.63068052896951,1000,-0.53988098737219,0.112182770167713,1,300
208827162,110,b_1,blue,blue,Y,no_color_change,no_figure_change,not_first,update,correct,8,1015,3019,2375,0,-0.0672000266944452,1.802062749072,2350,-1.78196717898648,2100,0.0251944460773689,0.323118770942256,1,150
208827162,111,b_1,blue,blue,X,no_color_change,figure_change,not_first,update,correct,104,1112,3117,2175,0,0.11493187345128,2.20856313917507,2075,-1.96591662873946,1975,1.55827648988527,0.279718338235169,1,125
208827162,112,b_1,blue,blue,X,no_color_change,no_figure_change,not_first,update,correct,5,1013,3018,2250,0,1.01805984616887,3.40967836252544,1450,-1.72884888850669,1650,0.935373804010507,1.48821193507963,0,NaN
208827162,114,b_1,red,blue,X,no_color_change,no_figure_change,not_first,no_update,correct,60,1067,3072,2575,0,-1.55902976133235,2.47901352046035,150,-4.2821260381189,100,-1.60284666473166,-1.31344046211198,0,NaN
208827162,115,b_1,red,blue,X,no_color_change,no_figure_change,not_first,no_update,correct,15,1022,3029,1125,0,-0.94982823127911,0.0375817153987419,225,-2.03199206291618,700,-1.66592276008964,-0.125162408905786,0,NaN
208827162,117,b_1,blue,blue,Y,no_color_change,no_figure_change,not_first,update,correct,14,1020,0,1875,0,-0.522563858854565,0.742306364248576,300,-1.78007759553067,150,-0.833906171772723,-0.344564043496207,0,NaN
208827162,118,b_1,blue,blue,X,no_color_change,figure_change,not_first,update,correct,21,1029,3034,900,0,-6.09991560604845,3.41777657733603,175,-9.96956228636762,475,-8.91031578914338,-2.41533755733862,0,NaN
208827162,119,b_1,blue,blue,X,no_color_change,no_figure_change,not_first,update,correct,22,1029,3035,1625,0,-1.29227426866218,3.60493531962505,125,-5.22928724368704,950,-0.301133617400933,-0.42059728255112,0,NaN
208827162,121,b_1,red,blue,X,no_color_change,figure_change,not_first,no_update,correct,22,1030,3034,1925,0,2.00047972385563,7.52489119538178,275,-2.35355117767269,1925,0.93636358582069,-1.4484706957314,0,NaN
208827162,124,b_2,red,blue,Y,no_color_change,figure_change,not_first,no_update,correct,3,1011,3017,1850,0,-0.778834202377446,0.887414376298944,1425,-3.18280837427637,1475,-0.224080603147646,-0.81564019836663,1,200
208827162,125,b_2,red,blue,Y,no_color_change,no_figure_change,not_first,no_update,correct,41,1048,3054,2250,0,-1.21513781399587,1.17943000369092,1300,-3.03857017048344,2175,-2.37331682048815,-2.665632381762,0,NaN
208827162,127,b_2,blue,blue,Y,no_color_change,no_figure_change,not_first,update,correct,12,1020,3027,2400,0,1.33937716561701,3.95552803414691,1125,-0.85562138482036,1900,-0.0608865780203081,0.51729596606712,1,150
208827162,128,b_2,blue,blue,Y,no_color_change,no_figure_change,not_first,update,correct,20,1028,3033,2950,0,0.824672894677925,4.07088260511544,250,-0.628091542031169,850,0.336075914639188,0.236827793127267,2,125
208827162,129,b_2,blue,blue,Y,no_color_change,no_figure_change,not_first,update,correct,20,1027,3033,1600,0,0.435655391677751,1.91252839776598,425,-0.643568130335838,600,0.512467030568958,0.246005769912595,1,125
208827162,133,b_2,red,blue,X,no_color_change,figure_change,not_first,no_update,correct,22,1028,3035,2775,0,-0.00897599006175306,2.18732782033843,175,-1.84906238836156,500,1.28251727889083,-1.00006954233061,1,125
208827162,134,b_2,red,blue,X,no_color_change,no_figure_change,not_first,no_update,correct,15,1023,3028,3075,0,0.569910305139134,3.05317695053067,1500,-0.923766362782005,1775,-0.000179960329125706,2.54541888190713,1,175
208827162,137,b_3,blue,blue,X,no_color_change,figure_change,not_first,update,correct,23,1032,3037,2275,0,-0.306108894265636,1.04874881135867,1300,-1.79336466649767,1675,0.060706617691184,-0.371588086253004,1,125
208827162,138,b_3,blue,blue,X,no_color_change,no_figure_change,not_first,update,correct,13,1021,3026,2175,0,0.542144093139026,1.58533052603025,1475,-0.383555448139752,2100,0.2452859285961,0.812280938889649,0,NaN
208827162,139,b_3,blue,blue,X,no_color_change,no_figure_change,not_first,update,correct,21,1030,3035,1025,0,-0.379477810438382,1.40024132752615,150,-1.98607218560135,1050,0.393483259629765,-1.98607218560135,0,NaN
208827162,140,b_3,blue,blue,Y,no_color_change,figure_change,not_first,update,correct,12,1020,3024,2825,0,0.522686027869288,3.16694187192527,2300,-0.908739675300146,1800,0.570834163981529,0.465077477232955,0,NaN
208827162,141,b_3,blue,blue,X,no_color_change,figure_change,not_first,update,correct,21,1028,3034,2825,0,-2.13335877989995,1.39682208127279,675,-4.24034524837393,2200,-1.40564013739987,-1.48893177639613,1,125
208827162,142,b_3,blue,blue,Y,no_color_change,figure_change,not_first,update,correct,21,1028,3034,2175,0,1.3093318910708,3.36354853149331,1575,-1.19295702176342,2050,-0.31088146856182,3.3367944292302,0,NaN
208827162,144,b_3,red,blue,Y,no_color_change,figure_change,not_first,no_update,correct,8,1015,3020,2150,0,-1.45335591294034,0.895272644004027,300,-3.89131219003781,2000,0.674911220991611,0.671641941679192,1,300
208827162,145,b_3,red,blue,Y,no_color_change,no_figure_change,not_first,no_update,correct,21,1029,3033,1325,0,-1.21266946875832,1.44835072217865,200,-4.00717664860552,1225,-0.206714431387178,-0.636789624605502,0,NaN
208827162,147,b_0,red,red,Y,no_color_change,no_figure_change,not_first,update,correct,12,1019,3025,2775,0,-0.268275235779443,0.453679989721766,1775,-1.64702692553162,1875,0.0622362804887386,-1.5686242088099,0,NaN
208827162,149,b_0,blue,red,Y,no_color_change,no_figure_change,not_first,no_update,correct,12,1020,3025,3100,0,0.576426016406883,1.25195401632792,750,-0.140938931092329,100,-0.140938931092329,0.71288285043679,0,NaN
208827162,151,b_1,red,red,Y,no_color_change,no_figure_change,not_first,update,correct,24,1031,3035,2800,0,0.116518220700856,0.723260562749611,1525,-0.363249924336922,2325,-0.00779828092870949,-0.155515717751378,0,NaN
208827162,152,b_1,red,red,X,no_color_change,figure_change,not_first,update,correct,10,1019,3023,3175,0,0.758980813493976,1.81807921836404,2175,-0.191777724069877,100,-0.0560876359103331,1.15582520718748,1,125
208827162,153,b_1,red,red,Y,no_color_change,figure_change,not_first,update,correct,23,1031,3037,2675,0,-0.0182500394186178,0.573503575530203,2025,-0.832316522198793,2375,0.209113902442162,-0.600737572004311,1,125
208827162,155,b_1,blue,red,X,no_color_change,no_figure_change,not_first,no_update,correct,22,1029,3034,2575,0,-0.215442194918564,0.611115284317132,200,-1.07970198796801,2325,-0.172072068030792,-1.00072939687073,0,NaN
208827162,156,b_1,blue,red,X,no_color_change,no_figure_change,not_first,no_update,correct,9,1017,3023,3025,0,0.326019693956001,1.16839243683798,1675,-0.398912062891674,2200,0.0368318806940583,-0.017186211431348,1,125
208827162,157,b_1,blue,red,X,no_color_change,no_figure_change,not_first,no_update,correct,22,1029,3033,2875,0,0.0935749971087357,0.540510848524125,625,-0.597318325750954,2375,-0.14216866000801,-0.141208871586015,0,NaN
208827162,159,b_1,red,red,Y,no_color_change,no_figure_change,not_first,update,correct,27,1034,3040,2050,0,0.636945992574402,1.35213193287365,1825,-0.200535793420581,75,0.0392913385254205,0.684569091987937,0,NaN
208827162,160,b_1,red,red,Y,no_color_change,no_figure_change,not_first,update,correct,6,1014,3019,2425,0,-0.28788341330692,0.61576425948617,1900,-0.98615261021168,400,-0.230649155160675,-0.684629078764312,0,NaN
208827162,161,b_1,red,red,Y,no_color_change,no_figure_change,not_first,update,correct,242,1250,3255,2550,0,0.792101949693231,2.15154570823093,325,-0.47371557303091,1800,0.910179357933138,0.208693995007539,1,125
208827162,163,b_1,blue,red,X,no_color_change,figure_change,not_first,no_update,correct,15,1023,0,1250,0,0.635889210849915,1.10444653322257,1175,0.279688344846982,50,0.279688344846982,0.385954919194741,1,200
208827162,165,b_1,red,red,Y,no_color_change,figure_change,not_first,update,correct,31,1038,3043,2850,0,0.43739061184033,1.31143090510342,1775,-0.498940012496466,100,-0.25644346900179,0.0345223898036328,0,NaN
208827162,167,b_2,red,red,Y,no_color_change,no_figure_change,not_first,update,correct,21,1029,3035,2525,0,1.12715215294264,1.77521866664432,1100,0.0956489149294397,2375,0.451190538502214,0.213672897446638,1,125
208827162,170,b_2,red,red,Y,no_color_change,figure_change,not_first,update,correct,9,1017,3022,2900,0,0.353272436297726,0.724280337947981,2425,0.0506888260366112,1525,0.294115164565094,0.724280337947981,0,NaN
208827162,175,b_3,red,red,Y,no_color_change,no_figure_change,not_first,update,correct,14,1021,3026,2275,0,0.711637125047409,2.08400059803303,1475,-0.326088116372803,300,0.0986482537481741,1.06740469881119,0,NaN
208827162,179,b_3,blue,red,X,no_color_change,figure_change,not_first,no_update,correct,202,1211,3217,2275,0,-0.440098983550535,0.30455286365429,350,-1.10798575302867,1950,-0.413908756985346,-0.290575944758988,0,NaN
209049931,3,b_0,blue,red,X,no_color_change,no_figure_change,not_first,no_update,correct,9,1015,3021,2425,0,0.0900219437268952,0.721441382696606,875,-0.802300317245416,1400,0,0.191291275715009,1,200
209049931,6,b_0,blue,red,X,no_color_change,no_figure_change,not_first,no_update,correct,17,1022,3028,3050,0,0.0484397194961265,0.423723277850917,575,-0.370790623474983,325,0.172124713451587,0.321339395447679,1,175
209049931,9,b_0,blue,red,Y,no_color_change,figure_change,not_first,no_update,correct,3,1011,3016,2125,0,0.232012733586396,0.875522574642394,600,-0.732596920888988,1450,-0.369555278641599,0.50473195116741,1,125
209049931,11,b_1,red,red,X,no_color_change,no_figure_change,not_first,update,correct,12,1018,3023,3375,0,0.0409201291292234,0.737500865530605,275,-0.573274872074295,1825,0,-0.00482907525777609,0,NaN
209049931,12,b_1,red,red,X,no_color_change,no_figure_change,not_first,update,correct,22,1030,3036,2825,0,-0.264645519345357,0.694975055508638,1650,-1.47904467778865,2125,-0.316360581422219,-0.950728870711171,0,NaN
209049931,14,b_1,blue,red,Y,no_color_change,figure_change,not_first,no_update,correct,21,1029,3034,2500,0,-0.539942945203132,0.239619462984691,1775,-1.52535139169461,400,-0.433156820214945,-0.31639801611414,1,225
209049931,15,b_1,blue,red,X,no_color_change,figure_change,not_first,no_update,correct,10,1016,3021,2225,0,-0.500861076404537,0.700739998064433,1350,-1.71937539991984,275,0.233629912277372,-0.74173098571765,0,NaN
209049931,19,b_1,red,red,Y,no_color_change,figure_change,not_first,update,correct,10,1020,3025,1975,0,0.0409866682656869,1.11993367819294,1175,-1.72944533204652,1600,0.109159561640894,-0.901352512067708,0,NaN
209049931,20,b_1,red,red,X,no_color_change,figure_change,not_first,update,correct,17,1024,3029,1775,0,0.71067600889889,1.74894880653723,950,-0.65076468435024,1500,0.460596449392851,0.88038908459209,0,NaN
209049931,24,b_2,red,red,X,no_color_change,figure_change,not_first,update,correct,21,1028,3034,2525,0,-0.397263897306812,0.230672571615633,1600,-1.2476234123346,1500,0.0403545978905636,-0.144198433278711,1,150
209049931,26,b_2,blue,red,Y,no_color_change,figure_change,not_first,no_update,correct,19,1026,3031,1975,0,0.222764848340021,0.664652955052835,1250,-0.640732186915478,1975,-0.131844984944865,-0.436488507795892,1,225
209049931,27,b_2,blue,red,X,no_color_change,figure_change,not_first,no_update,correct,6,1013,3018,1725,0,0.559973445218574,1.28674266539178,575,-0.54340198792154,75,-0.143786651667583,0.444162619639644,0,NaN
209049931,28,b_2,blue,red,Y,no_color_change,figure_change,not_first,no_update,correct,22,1029,3036,1100,0,-0.150033991276084,0.861671738631718,675,-2.09050293562211,1000,0.161979911941065,-1.89004016038651,0,NaN
209049931,29,b_2,blue,red,Y,no_color_change,no_figure_change,not_first,no_update,correct,3,1010,3016,1925,0,NaN,NaN,25,NaN,25,NaN,NaN,0,NaN
209049931,30,b_2,blue,red,X,no_color_change,figure_change,not_first,no_update,correct,16,1022,3027,1200,0,0.255613634228532,1.48087897769277,950,-0.782085583608213,1100,0.263502796430127,0.0284129311678458,0,NaN
209049931,31,b_2,blue,red,Y,no_color_change,figure_change,not_first,no_update,correct,22,1030,3036,925,0,0.534597753081153,1.64151124072469,450,-0.300263663896299,525,0.162541432319877,0.202783726134678,0,NaN
209049931,34,b_2,blue,red,X,no_color_change,no_figure_change,not_first,no_update,correct,411,1419,3425,900,0,0.626180787384572,1.33469650574226,375,-0.301049792426634,50,-0.301049792426634,0.831911158554725,0,NaN
209049931,36,b_2,red,red,X,no_color_change,figure_change,not_first,update,correct,123,1129,0,350,0,0.405132633924738,1.28299919619971,175,-0.436975158790861,325,-0.2219502883981,0.112865596141047,0,NaN
209049931,38,b_2,blue,red,Y,no_color_change,no_figure_change,not_first,no_update,correct,99,1105,3111,1000,0,-0.507959973447653,0.465200916499103,75,-2.35898454607769,675,0.327254076771156,-0.417059902689024,0,NaN
209049931,39,b_2,blue,red,Y,no_color_change,no_figure_change,not_first,no_update,correct,21,1029,3033,1300,0,0.9135605410214,1.73558462152152,650,0.220827247640477,1125,0.440456585139491,0.974088118469716,0,NaN
209049931,42,b_3,blue,red,Y,no_color_change,figure_change,not_first,no_update,correct,675,1683,3687,775,0,-0.896330225496793,0.570280096720635,75,-1.60782001799602,675,0.466361391948646,-1.54841116191779,0,NaN
209049931,43,b_3,blue,red,Y,no_color_change,no_figure_change,not_first,no_update,correct,9,1016,3021,3025,0,-0.274011138969405,0.273947075476015,150,-0.767448619067202,2075,-0.155616014314539,0.0937739032614673,0,NaN
209049931,50,b_0,blue,blue,X,no_color_change,no_figure_change,not_first,update,correct,6,1012,3018,2050,0,-1.17383415631122,0.357389003767356,600,-2.47566848079466,425,-0.447569176604432,-1.84362114240479,0,NaN
209049931,51,b_0,blue,blue,X,no_color_change,no_figure_change,not_first,update,correct,16,1022,3028,2350,0,0.666561319293655,1.73734405204179,2350,-0.537936522901111,225,-0.100587017191043,1.73734405204179,0,NaN
209049931,52,b_0,blue,blue,X,no_color_change,no_figure_change,not_first,update,correct,229,1235,3241,2275,0,-1.25692593327691,0.224458412756789,150,-2.48259389879999,1575,-0.752137830071617,-0.966039659706756,0,NaN
209049931,53,b_0,blue,blue,Y,no_color_change,figure_change,not_first,update,correct,15,1023,3028,3175,0,0.577658204350953,1.41843791156896,2350,-0.3565654405451,150,-0.0751688613768566,1.35393793738952,0,NaN
209049931,55,b_1,blue,blue,Y,no_color_change,figure_change,not_first,update,correct,5,1012,3018,3325,0,0.514842791307942,1.29449164661938,1150,-0.559498905447461,2200,0.0334291798852256,0.132818286934805,0,NaN
209049931,57,b_1,red,blue,Y,no_color_change,no_figure_change,not_first,no_update,correct,2,1009,3014,2650,0,-0.290108442419982,0.402011156536887,1825,-1.19910805160531,2375,-0.193911704149459,-1.0747500050446,0,NaN
209049931,59,b_1,blue,blue,X,no_color_change,figure_change,not_first,update,correct,22,1030,3034,2875,0,-0.363348838275934,0.436600811871654,2075,-2.01125369282589,2175,-0.157899530521704,-1.0294540278205,1,125
209049931,63,b_2,red,blue,Y,no_color_change,figure_change,not_first,no_update,correct,16,1023,3030,2950,0,0.809414452408993,1.65655998687683,1775,-0.121101228363611,150,0.17025297885555,0.726233023262461,0,NaN
209049931,64,b_2,red,blue,Y,no_color_change,no_figure_change,not_first,no_update,correct,3,1011,3016,2650,0,0.207992165332228,1.35869214326345,925,-0.577242949417894,1325,-0.117919279550348,0.240405591515027,0,NaN
209049931,67,b_3,red,blue,Y,no_color_change,no_figure_change,not_first,no_update,correct,31,1043,3048,3550,0,0.640542283842922,1.22329086258612,1550,0.0623661967399619,100,0.230298224696426,0.319991746538532,0,NaN
209049931,69,b_3,blue,blue,X,no_color_change,no_figure_change,not_first,update,correct,15,1022,3028,3050,0,0.189284853412989,0.636389762652672,1225,-0.276268026375101,375,0.0728104757858499,0.277578240592327,0,NaN
209049931,71,b_0,red,red,Y,no_color_change,no_figure_change,not_first,update,correct,25,1031,3037,2975,0,-0.151047052276913,0.646422260087432,1425,-0.971954341030234,2250,0.113389681827938,-0.638486105400234,0,NaN
209049931,72,b_0,red,red,Y,no_color_change,no_figure_change,not_first,update,correct,11,1017,0,1150,0,0.50576431678238,1.32384044508524,925,-0.159060005971247,450,-0.00423012018704427,0.116272153105835,0,NaN
209049931,74,b_0,blue,red,X,no_color_change,no_figure_change,not_first,no_update,correct,23,1030,3035,3000,0,0.581500470255726,1.46429540917188,1600,-0.451162907028824,2425,-0.020027560177601,-0.282931401536994,0,NaN
209049931,77,b_1,blue,red,Y,no_color_change,figure_change,not_first,no_update,correct,11,1019,3024,3125,0,-0.468436122915305,0.17227445221927,150,-1.43109083743818,2150,0.00348142634862936,-0.859912308111443,0,NaN
209049931,78,b_1,blue,red,X,no_color_change,figure_change,not_first,no_update,correct,19,1027,3033,2525,0,0.155112189672244,0.793652903411723,1325,-1.15261416423975,2400,0.0271775863344611,-0.640938077721043,0,NaN
209049931,79,b_1,blue,red,X,no_color_change,no_figure_change,not_first,no_update,correct,8,1015,3020,2200,0,0.732964674197686,1.43812855951928,875,-0.265711443253451,1550,0.714029313696298,0.818546973539019,0,NaN
209049931,83,b_2,red,red,Y,no_color_change,no_figure_change,not_first,update,correct,491,1499,3504,800,0,0.392094472680255,1.81172678488832,150,-0.575258910746095,550,1.06782458703926,0.807952955725448,0,NaN
209049931,86,b_2,red,red,X,no_color_change,figure_change,not_first,update,correct,135,1142,3148,2850,0,1.33251294402177,2.32330928467722,1700,-0.0274396291779064,1475,0.700141042993702,1.88113070370938,0,NaN
209049931,90,b_3,red,red,X,no_color_change,figure_change,not_first,update,correct,22,1030,3035,3150,0,0.0517912821970102,0.770069047501654,1875,-0.690370588402387,2250,0.0305467086073283,-0.374047441672088,0,NaN
209049931,92,b_3,blue,red,Y,no_color_change,figure_change,not_first,no_update,correct,22,1029,3034,2850,0,-0.121418072508631,0.579863377852346,300,-1.10492236673272,2100,0.0227602926878132,-0.441018105518302,1,275
209049931,94,b_3,red,red,Y,no_color_change,no_figure_change,not_first,update,correct,13,1020,3024,2775,0,-0.304382203616317,0.560771684972766,2000,-1.36236074307169,2275,-0.272561991874947,-0.836248903481042,1,200
209049931,96,b_0,blue,blue,Y,no_color_change,no_figure_change,not_first,update,correct,7,1014,3020,3300,0,-0.186069329154395,0.327965335917651,2325,-0.66641238557311,1525,-0.223447676074929,0.214687958165475,0,NaN
209049931,97,b_0,blue,blue,X,no_color_change,figure_change,not_first,update,correct,27,1037,3042,3450,0,-0.35355561412974,0.745923671212773,2450,-1.16088723115424,1100,-0.0798107631750292,0.745923671212773,0,NaN
209049931,98,b_0,blue,blue,Y,no_color_change,figure_change,not_first,update,correct,8,1015,3021,3025,0,-0.334926644916273,0.450002431579281,2250,-0.919470902957349,650,0.100811625342567,0.194435789836352,0,NaN
209049931,104,b_1,red,blue,X,no_color_change,figure_change,not_first,no_update,correct,6,1014,3019,2225,0,0.401203758295231,1.25391244057729,1075,-1.10147837507601,1750,0.123609352722301,0.324109562649814,1,250
209049931,105,b_1,red,blue,Y,no_color_change,figure_change,not_first,no_update,correct,21,1029,3035,1975,0,0.0195077392024461,0.897758781643316,550,-0.727543237479687,1025,0.407701229708838,0.341741302544485,0,NaN
209049931,107,b_2,blue,blue,Y,no_color_change,figure_change,not_first,update,correct,16,1025,3031,2625,0,0.0485172903525809,0.92152981101299,875,-1.45542338718666,2000,0.0679814005280737,-0.327815597149968,0,NaN
209049931,109,b_2,red,blue,X,no_color_change,no_figure_change,not_first,no_update,correct,16,1024,3030,1775,0,0.2058501621843,0.742629418323747,1675,-0.184702769936958,50,-0.184702769936958,0.616886288161964,0,NaN
209049931,112,b_3,blue,blue,X,no_color_change,figure_change,not_first,update,correct,21,1028,3033,2775,0,0.101369286474789,0.876720484783857,975,-1.04472738212416,1650,0.293562854042485,-0.651700551648257,0,NaN
209049931,114,b_3,red,blue,Y,no_color_change,figure_change,not_first,no_update,correct,21,1029,3035,2075,0,0.581418045118019,1.45463725865633,725,-0.668246685477226,1500,0.419605461739635,0.173921578663783,0,NaN
209049931,117,b_0,red,blue,X,no_color_change,no_figure_change,not_first,no_update,correct,6,1013,3019,2500,0,-0.0376921036682829,0.90696771585582,1075,-1.31725193930719,2125,0.177365570320492,-0.397069777203347,0,NaN
209049931,118,b_0,red,blue,X,no_color_change,no_figure_change,not_first,no_update,correct,10,1017,3021,2675,0,0.0161378255397721,0.965178661792579,1450,-0.984981613818653,2200,-0.280535581254066,-0.246282838146584,0,NaN
209049931,119,b_0,red,blue,X,no_color_change,no_figure_change,not_first,no_update,correct,6,1012,3018,2775,0,-0.198317998943328,0.494325106813443,250,-1.22250473405578,1900,-0.376555566030778,0.0752437307606983,0,NaN
209049931,121,b_0,blue,blue,X,no_color_change,figure_change,not_first,update,correct,21,1029,3034,2375,0,-0.666021685604274,-0.00550289971234959,1025,-1.2283071113035,1375,-0.0550664318154165,-0.693964318826778,0,NaN
209049931,123,b_0,red,blue,Y,no_color_change,no_figure_change,not_first,no_update,correct,21,1028,3032,1775,0,-0.20365131466363,0.544337855219559,1800,-1.16365739835637,1475,-0.101373145721378,0.544337855219559,1,150
209049931,128,b_1,red,blue,X,no_color_change,figure_change,not_first,no_update,correct,4,1010,3016,2550,0,-0.172189162869637,0.935754993942873,625,-1.5296563812655,2075,0.113090204292572,-0.585366277564696,0,NaN
209049931,130,b_1,blue,blue,X,no_color_change,no_figure_change,not_first,update,correct,21,1028,3033,2075,0,0.122838558885042,0.739672077662008,1350,-0.77392482076949,1325,-0.0664091434674023,0.394337044693132,1,175
209049931,138,b_3,blue,blue,Y,no_color_change,no_figure_change,not_first,update,correct,14,1021,3027,2900,0,-0.182258709071658,0.320066615922373,450,-1.02305269550205,2450,-0.0756180776799057,-1.02305269550205,0,NaN
209049931,141,b_3,blue,blue,Y,no_color_change,no_figure_change,not_first,update,correct,41,1047,3054,1825,0,-0.531497755890743,0.769208049587477,1525,-1.65955476223049,1275,0.132631113475201,-1.26409467677973,0,NaN
209049931,143,b_3,red,blue,X,no_color_change,figure_change,not_first,no_update,correct,22,1031,3035,2350,0,-0.508035462098524,0.338185006812014,1950,-1.64357014878033,1400,0.0225356845362887,-0.366298460444494,1,125
209049931,144,b_3,red,blue,X,no_color_change,no_figure_change,not_first,no_update,correct,21,1029,3034,2050,0,0.389788498546416,1.46751479267706,1900,-0.63930966862249,1525,0.461682055458553,0.692242322998424,0,NaN
209049931,145,b_3,red,blue,X,no_color_change,no_figure_change,not_first,no_update,correct,194,1201,3206,1750,0,-0.221507489470808,0.672065024053142,300,-1.11746298852617,1625,-0.663118132684084,-0.882934643642701,1,125
209049931,147,b_0,blue,blue,X,no_color_change,no_figure_change,not_first,update,correct,31,1038,0,1225,0,-0.220121447719888,0.627330567207852,875,-1.04098391293209,1150,0.000149738767682983,-1.0025759190214,0,NaN
209049931,150,b_0,blue,blue,Y,no_color_change,figure_change,not_first,update,correct,22,1029,3034,1750,0,NaN,NaN,25,NaN,25,NaN,NaN,0,NaN
209049931,152,b_0,red,blue,Y,no_color_change,figure_change,not_first,no_update,correct,21,1029,3034,1250,0,1.40934876837061,2.82107838314737,1275,-0.140529833470478,175,1.58490998654052,2.82107838314737,0,NaN
209049931,154,b_1,blue,blue,Y,no_color_change,figure_change,not_first,update,correct,9,1017,3023,3000,0,-0.225200931800661,0.54239125123968,2000,-1.59935977762193,2150,-0.286899478880593,-1.25409961403689,0,NaN
209049931,155,b_1,blue,blue,Y,no_color_change,no_figure_change,not_first,update,correct,26,1033,3038,2750,0,0.0443022212272368,1.02357678118894,1475,-1.02207939351211,1800,0.158311312132832,-0.24807970335878,0,NaN
209049931,158,b_1,blue,blue,Y,no_color_change,figure_change,not_first,update,correct,4,1011,3017,1700,0,-1.33209149159271,-0.367009719590988,1325,-2.63514026837703,1375,-0.617410373848854,-1.3789817462845,0,NaN
209049931,161,b_2,red,blue,X,no_color_change,no_figure_change,not_first,no_update,correct,8,1015,3021,2875,0,-0.393899695573347,0.0889448280036911,1950,-1.28794057553325,2325,-0.316809797725268,-0.737004855862655,1,200
209049931,164,b_3,blue,blue,Y,no_color_change,no_figure_change,not_first,update,correct,17,1025,3031,2800,0,-0.113763256897827,0.622613796025838,1025,-1.54549125594797,2425,-0.197954650876902,-1.25799282199665,0,NaN
209049931,166,b_3,red,blue,Y,no_color_change,figure_change,not_first,no_update,correct,268,1274,3279,775,0,1.35524815160675,2.171324435479,750,-0.473361679337826,50,-0.473361679337826,2.09679196386479,0,NaN
209049931,167,b_3,red,blue,X,no_color_change,figure_change,not_first,no_update,correct,23,1030,0,1625,0,-0.282471656726842,0.330361156200578,1300,-1.12614783705178,1200,-0.559686078907065,-0.260957237379516,1,200
209049931,169,b_3,blue,blue,X,no_color_change,figure_change,not_first,update,correct,22,1030,3036,950,0,0.0727072774459601,1.72124713451587,800,-1.20700677160059,300,-0.153369932799294,0.415450210936433,0,NaN
209049931,170,b_3,blue,blue,Y,no_color_change,figure_change,not_first,update,correct,192,1203,3208,750,0,-0.166307491412248,0.572975394538929,75,-1.40503629186134,700,0.0595211601539851,0.408150446011887,0,NaN
209049931,171,b_3,blue,blue,Y,no_color_change,no_figure_change,not_first,update,correct,24,1032,3037,1100,0,-0.761475609270266,0.0690295719018545,625,-2.27393292603376,775,-0.378839082237943,-1.67314355539772,0,NaN
209049931,172,b_3,blue,blue,Y,no_color_change,no_figure_change,not_first,update,correct,33,1040,3046,1250,0,0.338916106345226,1.59891056131888,125,-0.86732437711175,675,0.210869619589559,0.107138088277173,0,NaN
209049931,187,b_1,red,red,Y,no_color_change,no_figure_change,not_first,update,correct,5,1012,3018,3125,0,0.160252513167485,0.489945247858716,1900,-0.199976124240622,850,-0.087185397483416,-0.0746073409980456,0,NaN
209049931,188,b_1,red,red,X,no_color_change,figure_change,not_first,update,correct,15,1023,3028,2975,0,0.0246208354687401,0.584729887802043,1125,-0.547781846876268,2000,-0.193125575619126,-0.224346108681027,0,NaN
209049931,191,b_1,red,red,Y,no_color_change,no_figure_change,not_first,update,correct,2,1010,3015,2700,0,-0.850084929632927,0.326018731937774,900,-1.98632218800667,1950,-0.072024347255512,-0.294199243805136,1,150
209049931,196,b_2,blue,red,Y,no_color_change,figure_change,not_first,no_update,correct,7,1015,3019,3450,0,-0.00596523745380371,0.50473195116741,1125,-0.571665180321703,625,0.132443940015597,-0.28674974011291,0,NaN
209049931,199,b_3,red,red,X,no_color_change,no_figure_change,not_first,update,correct,143,1151,3157,2800,0,0.523841396581303,1.15497254983076,1075,-0.221950288398099,2375,0.196831610119279,-0.0944851624079615,0,NaN
209049931,200,b_3,red,red,X,no_color_change,no_figure_change,not_first,update,correct,8,1014,0,500,0,0.567909889647969,0.858414920434613,350,0.173397492976893,500,0.310146422563376,0.173397492976893,0,NaN
209049931,201,b_3,red,red,Y,no_color_change,figure_change,not_first,update,correct,1919,2927,4932,2875,0,-0.650714514144571,-0.115635763343183,1175,-1.41102584256866,2050,-0.582858153206006,-0.803947443689928,1,375
209049931,202,b_3,red,red,Y,no_color_change,no_figure_change,not_first,update,correct,9,1016,3021,2525,0,-0.114240645700982,0.755020301349514,150,-1.03952395994718,2150,0.296333021244621,-0.0112678422681444,1,275
209049931,206,b_0,red,red,Y,no_color_change,figure_change,not_first,update,correct,12,1019,3025,3375,0,-0.656131242974119,0.0114550157277482,1200,-1.14763535021429,1625,-0.161642999713779,-0.609886000772784,0,NaN
209049931,209,b_0,red,red,Y,no_color_change,figure_change,not_first,update,correct,22,1028,3033,3400,0,-0.496180632573803,-0.0840783180539941,675,-1.07916729869125,1850,-0.171338584921251,-0.342415126999058,2,162.5
209049931,210,b_0,red,red,Y,no_color_change,no_figure_change,not_first,update,correct,10,1018,3023,3300,0,0.347408606161558,1.04203208430587,1350,-1.19016116023626,2400,0.172124713451587,-0.765951231390372,0,NaN
209049931,213,b_1,blue,red,Y,no_color_change,figure_change,not_first,no_update,correct,13,1021,3025,3525,0,0.229809258153502,0.727468368095846,1575,-0.310333596022979,200,0.153145324647769,0.310969985785632,0,NaN
209049931,214,b_1,blue,red,X,no_color_change,figure_change,not_first,no_update,correct,21,1027,3032,3525,0,0.163397027288828,0.560659380897004,2450,-0.256203031505582,225,0.00149738767682983,0.560659380897004,0,NaN
209049931,217,b_2,red,red,X,no_color_change,no_figure_change,not_first,update,correct,23,1029,3034,3525,0,0.0679856456993223,0.548081324411633,1125,-0.470853554979136,1925,-0.0637138456491088,-0.133791588924744,0,NaN
209049931,220,b_2,red,red,X,no_color_change,figure_change,not_first,update,correct,17,1029,3034,3325,0,0.827131095728639,1.365991908188,1300,-0.052333699305202,75,-0.0482907525777615,0.994115678647315,2,137.5
209049931,224,b_3,red,red,X,no_color_change,no_figure_change,not_first,update,correct,26,1032,3038,2675,0,0.191077473453936,0.986628740263166,1400,-0.777630855269644,2150,-0.0930626441149731,-0.244935189237437,0,NaN
209049931,225,b_3,red,red,Y,no_color_change,figure_change,not_first,update,correct,22,1030,3035,3525,0,0.898955919935462,1.5478870762309,1500,-0.0980414581404322,100,0.0206265152483308,0.733907135106214,0,NaN
209049931,226,b_3,red,red,Y,no_color_change,no_figure_change,not_first,update,correct,20,1033,3037,3525,0,-0.275352227159349,0.154829885784203,1225,-0.778005202188852,1750,-0.159172310047009,-0.228052143181181,0,NaN
209154863,2,b_0,blue,blue,Y,no_color_change,figure_change,not_first,update,correct,22,1031,3037,3325,0,0.0646634020091727,0.921637235868559,1100,-1.28510530643772,2725,0,-0.476853153807938,0,NaN
209154863,3,b_0,blue,blue,Y,no_color_change,no_figure_change,not_first,update,correct,11,1018,3023,3525,0,1.06489034580123,1.93903550858954,2325,-0.0309815119228433,300,-0.0219742856842489,1.18424110425507,2,162.5
209154863,4,b_0,blue,blue,Y,no_color_change,no_figure_change,not_first,update,correct,21,1028,3033,3300,0,-1.23108899012067,0.148270656069987,75,-3.04176539830774,2350,0.0131901486404185,-0.651420448710729,0,NaN
209154863,5,b_0,blue,blue,X,no_color_change,figure_change,not_first,update,correct,8,1015,3020,3525,0,1.64554637711655,2.76588772283277,3175,-0.0041550362524769,50,-0.0041550362524769,2.48407029754721,0,NaN
209154863,6,b_0,blue,blue,X,no_color_change,no_figure_change,not_first,update,correct,19,1026,3031,3525,0,-0.254609492064817,0.524956761428915,2925,-1.16106771414897,1625,0.215950340531502,0.15766828839942,0,NaN
209154863,8,b_0,red,blue,Y,no_color_change,no_figure_change,not_first,no_update,correct,16,1022,3028,3525,0,0.228101471903714,0.695424792377916,1300,-0.20964807077942,1825,0,0.113217766342705,1,150
209154863,10,b_1,blue,blue,Y,no_color_change,figure_change,not_first,update,correct,23,1031,3036,3225,0,-0.16922309812667,0.51823619943665,675,-1.39310836285282,2125,-0.0157277882308584,-1.20680099907558,0,NaN
209154863,11,b_1,blue,blue,Y,no_color_change,no_figure_change,not_first,update,correct,13,1020,3026,3525,0,0.163391816499787,0.421303944311717,1300,-0.140992371090815,2825,-0.00131064901923822,0.325961199699473,0,NaN
209154863,14,b_1,blue,blue,Y,no_color_change,figure_change,not_first,update,correct,21,1030,3034,3525,0,-0.419087619755524,0.190880692269903,75,-0.989149603433999,3350,0.117846867134055,-0.835747895884439,0,NaN
209154863,15,b_1,blue,blue,X,no_color_change,figure_change,not_first,update,correct,9,1016,3021,3525,0,0.816943058368339,1.49316386670445,2850,-0.10086420218265,100,-0.00421080855116951,0.977548965306273,0,NaN
209154863,16,b_1,blue,blue,X,no_color_change,no_figure_change,not_first,update,correct,21,1028,3034,3525,0,-0.155650912789306,0.363300753673089,1025,-0.669239698142498,2075,-0.0763522769079611,0.0721135822074461,0,NaN
209154863,20,b_1,red,blue,X,no_color_change,figure_change,not_first,no_update,correct,15,1022,3028,3350,0,0.449633756003187,1.22174797512476,1525,-1.2320100780839,3100,0.295063346224666,-1.04667872953375,1,200
209154863,22,b_1,blue,blue,X,no_color_change,no_figure_change,not_first,update,correct,14,1022,3028,3525,0,-0.411027690172309,0.041048411836568,3375,-0.843695448447905,2000,-0.148410086816716,0.041048411836568,0,NaN
209154863,26,b_2,blue,blue,X,no_color_change,no_figure_change,not_first,update,correct,12,1020,3024,3525,0,-0.852010515487073,0.130116772846072,50,-2.38030593583263,3375,0.130116772846072,-2.38030593583263,0,NaN
209154863,27,b_2,blue,blue,Y,no_color_change,figure_change,not_first,update,correct,23,1031,3036,3525,0,0.811307767039036,2.32570485541415,3375,-0.919601546966338,725,-0.151505449394066,2.32570485541415,0,NaN
209154863,29,b_2,red,blue,Y,no_color_change,figure_change,not_first,no_update,correct,21,1029,3034,3425,0,0.574684425090878,1.91954309019704,1400,-1.09037632555814,3000,0.0834911311404075,-0.782875756725383,0,NaN
209154863,32,b_3,blue,blue,Y,no_color_change,no_figure_change,not_first,update,correct,15,1023,3028,3525,0,0.130197621868615,1.10615988608769,600,-0.696596010650427,825,0.0658670847540557,0.848268776940565,0,NaN
209154863,33,b_3,blue,blue,Y,no_color_change,no_figure_change,not_first,update,correct,4,1011,3016,3175,0,0.0738881952705192,1.24308087937406,2400,-0.96946198199608,750,-0.32833152239384,-0.0254600543524357,0,NaN
209154863,36,b_3,blue,blue,X,no_color_change,no_figure_change,not_first,update,correct,13,1021,3026,3475,0,-0.520923753288609,1.25130729343099,150,-2.3743382998727,3250,-0.0569992892621887,-2.25618468509584,2,162.5
209154863,40,b_3,red,blue,X,no_color_change,no_figure_change,not_first,no_update,correct,11,1018,3022,3525,0,-1.10257089704581,0.0489959644000321,50,-2.23005536315911,2025,0.0489959644000321,-0.434549865250825,0,NaN
209154863,42,b_0,blue,blue,X,no_color_change,no_figure_change,not_first,update,correct,13,1019,3024,3350,0,-0.357330391999307,0.277522958286351,2850,-0.849607312109149,950,-0.182933139706437,-0.124455884528936,0,NaN
209154863,43,b_0,blue,blue,X,no_color_change,no_figure_change,not_first,update,correct,21,1028,3034,3525,0,-0.517319078092131,0.154210405880579,1600,-1.49112817780223,450,-0.068042204403004,-0.217205217252049,0,NaN
209154863,47,b_0,red,blue,Y,no_color_change,figure_change,not_first,no_update,correct,4,1012,3018,3225,0,-0.693230649619336,1.11488825083283,1375,-3.02266338600607,2550,-0.171918110714964,-2.32999932241336,0,NaN
209154863,54,b_2,red,blue,X,no_color_change,no_figure_change,not_first,no_update,correct,633,1639,3644,2400,0,1.82507626421266,2.66987571063623,425,0.275319952488057,1975,1.89252141148126,1.2998013071428,0,NaN
209154863,55,b_2,red,blue,X,no_color_change,no_figure_change,not_first,no_update,correct,23,1030,3035,3250,0,1.22915324933788,2.42690369138895,1475,-0.369491478827788,50,-0.369491478827788,1.0689597628608,0,NaN
209154863,56,b_2,red,blue,X,no_color_change,no_figure_change,not_first,no_update,correct,13,1020,3024,3525,0,0.225280130437898,1.0417428810996,725,-1.16681226091414,3375,0.123786616944645,-1.16681226091414,0,NaN
209154863,59,b_3,blue,blue,Y,no_color_change,no_figure_change,not_first,update,correct,13,1019,3026,3525,0,-0.30854983722828,0.428191823200052,325,-1.08655592309781,2575,0.0709423639349337,-0.851698773310063,0,NaN
209154863,60,b_3,blue,blue,X,no_color_change,figure_change,not_first,update,correct,24,1032,3037,3525,0,0.434062481954055,1.24199331954959,2550,-0.35716580081708,550,0.133630427663605,0.579223208055245,0,NaN
209154863,63,b_3,blue,blue,Y,no_color_change,figure_change,not_first,update,correct,11,1018,3023,3525,0,0.119286541620415,0.868709324410812,3325,-0.887560361368366,550,-0.193223128814924,0.737281902545502,0,NaN
209154863,66,b_3,blue,blue,X,no_color_change,no_figure_change,not_first,update,correct,21,1028,3032,3525,0,0.952276101933959,2.23786348497585,3250,-0.30178390821693,450,0.30091943758722,2.01089811545288,0,NaN
209154863,69,b_0,red,blue,X,no_color_change,figure_change,not_first,no_update,correct,5,1013,3019,3500,0,-0.317937382742721,0.168711203540235,1500,-0.769323088143474,400,-0.047880518426209,-0.323200470914269,1,125
209154863,70,b_0,red,blue,X,no_color_change,no_figure_change,not_first,no_update,correct,17,1024,3030,3525,0,-1.04308807564713,0.189681587848046,750,-2.5617889957731,2300,-0.301309843678055,-1.72542760460306,0,NaN
209154863,71,b_0,red,blue,X,no_color_change,no_figure_change,not_first,no_update,correct,6,1013,3019,3500,0,0.284781993498253,1.11653353364421,1450,-0.473702018931897,2675,-0.0600946518395384,0.385163494759956,1,150
209154863,73,b_1,blue,blue,Y,no_color_change,no_figure_change,not_first,update,correct,7,1014,3018,3500,0,-0.0853326575251704,0.339569640580076,1375,-0.504822961601468,2100,0.00462910079135193,0.11497459375147,0,NaN
209154863,74,b_1,blue,blue,X,no_color_change,figure_change,not_first,update,correct,15,1024,3029,3525,0,0.325415130625723,1.10752630740562,2575,-0.185749640790332,700,-0.00273284263585835,0.82955717072974,0,NaN
209154863,76,b_1,red,blue,X,no_color_change,no_figure_change,not_first,no_update,correct,14,1021,3027,3425,0,-0.213263697337096,0.760762040294407,3150,-1.317090719737,625,-0.0242888360799248,0.497405245875569,0,NaN
209154863,77,b_1,red,blue,Y,no_color_change,figure_change,not_first,no_update,correct,3,1010,3014,3500,0,0.0331025241178381,0.716701924328529,2825,-0.688202279697433,350,-0.303903255567188,0.673255303648249,0,NaN
209154863,79,b_2,blue,blue,Y,no_color_change,no_figure_change,not_first,update,correct,180,1189,3195,3450,0,-0.415519649378447,0.184857284011276,2550,-1.3591988052487,1075,-0.474148197321425,-0.0730338251358473,1,150
209154863,81,b_2,red,blue,X,no_color_change,figure_change,not_first,no_update,correct,10,1019,3023,3525,0,0.0277947909905483,0.497516790472949,525,-0.453651877552488,3125,0.244087465221104,-0.325515021309944,0,NaN
209154863,83,b_2,blue,blue,Y,no_color_change,figure_change,not_first,update,correct,9,1017,3022,3075,0,-0.419123338862895,0.427160035674267,125,-1.3542350706652,2000,0.334689564444613,-0.0990237163258472,0,NaN
209154863,84,b_2,blue,blue,Y,no_color_change,no_figure_change,not_first,update,correct,19,1025,3031,3375,0,0.373191404408527,0.950025335902271,2450,-0.371359850833936,2050,-0.244366326714559,0.558420140643507,1,175
209154863,85,b_2,blue,blue,Y,no_color_change,no_figure_change,not_first,update,correct,6,1014,3019,3500,0,NaN,NaN,25,NaN,25,NaN,NaN,0,NaN
209154863,86,b_2,blue,blue,Y,no_color_change,no_figure_change,not_first,update,correct,15,1021,3027,3450,0,-0.59678315791922,0.118655565465075,1775,-1.2614299656434,600,-0.0989121717284653,-0.296123019899795,0,NaN
209154863,91,b_3,red,blue,Y,no_color_change,no_figure_change,not_first,no_update,correct,13,1020,3025,3525,0,-0.0851792837037703,0.503149792640739,2825,-0.968430194470297,700,-0.75300969077636,0.0404628027003111,0,NaN
209154863,94,b_3,red,blue,X,no_color_change,figure_change,not_first,no_update,correct,22,1029,3037,3425,0,-0.429459602467311,0.482792903618528,1400,-1.45515504514654,2375,-0.241717142526737,-0.559675017364054,0,NaN
209154863,95,b_3,red,blue,Y,no_color_change,figure_change,not_first,no_update,correct,10,1016,3021,3450,0,0.0580433550179077,1.3406266297846,2000,-1.49667752152198,3100,-0.0918569759440555,-0.958809472946102,0,NaN
209154863,98,b_0,blue,red,Y,no_color_change,no_figure_change,not_first,no_update,correct,14,1021,0,1975,0,1.31004446182097,2.13527034153378,1825,0.317511696447789,125,0.396317954498153,1.96583409811056,0,NaN
209154863,99,b_0,blue,red,Y,no_color_change,no_figure_change,not_first,no_update,correct,1576,2583,4588,675,0,-0.244767458247452,0.182765822810364,125,-0.588927588027476,675,-0.0488286475039574,-0.323562990855761,0,NaN
209154863,101,b_1,red,red,Y,no_color_change,figure_change,not_first,update,correct,25,1033,3038,3475,0,-0.642131863711572,0.200975478332971,1275,-1.71678289830596,2600,-0.0990794886245382,-0.814247674739064,0,NaN
209154863,102,b_1,red,red,Y,no_color_change,no_figure_change,not_first,update,correct,13,1020,3026,3525,0,0.510531922310386,0.947710785506595,2900,0.0903511238793988,2250,0.0910203914636907,0.603651474881897,0,NaN
209154863,103,b_1,red,red,X,no_color_change,figure_change,not_first,update,correct,21,1028,3033,3525,0,0.693593463167167,1.5847698673044,2400,-0.251951359336533,100,0.0665084661890019,0.2735073527806,0,NaN
209154863,105,b_1,blue,red,X,no_color_change,figure_change,not_first,no_update,correct,20,1027,3031,3525,0,-0.0128526013699824,1.02186005661626,2175,-0.997041383698773,525,-0.0691018780781327,0.424817599129248,0,NaN
209154863,107,b_1,red,red,Y,no_color_change,figure_change,not_first,update,correct,21,1027,3032,3525,0,0.061888730149296,0.880700368629375,1475,-0.579446297250009,2725,-0.0446736112514806,-0.128025311645161,0,NaN
209154863,112,b_2,blue,red,X,no_color_change,no_figure_change,not_first,no_update,correct,13,1020,3026,3525,0,-0.368762693044147,0.15538162415309,625,-0.922947884887797,1650,0.0205520920676303,-0.343055409248259,0,NaN
209154863,113,b_2,blue,red,X,no_color_change,no_figure_change,not_first,no_update,correct,21,1029,3035,3525,0,-0.200040876118714,0.447321721651059,2200,-0.861542584029022,700,-0.188092077335355,0.0455659680305347,0,NaN
209154863,115,b_3,red,red,X,no_color_change,figure_change,not_first,update,correct,9,1017,3022,3525,0,0.516778731922165,1.19319255819497,2500,-0.282681895915266,300,0.00407137780444204,0.601643672129021,1,150
209154863,116,b_3,red,red,X,no_color_change,no_figure_change,not_first,update,correct,24,1034,3039,3175,0,-0.758890594224553,0.510902142158784,875,-2.80978052190258,2900,0.222559357926382,-2.30381422817794,0,NaN
209154863,117,b_3,red,red,Y,no_color_change,figure_change,not_first,update,correct,6,1015,3019,3500,0,1.1087299901505,2.08214722703062,1350,-0.0885664103212871,150,-0.0220579441322852,0.762184233911027,0,NaN
209154863,120,b_3,red,red,X,no_color_change,figure_change,not_first,update,correct,15,1022,3027,3525,0,0.197195656463104,0.69453243559886,1400,-0.430199625952928,350,-0.0772725198363624,0.131092788073165,0,NaN
209154863,121,b_3,red,red,Y,no_color_change,figure_change,not_first,update,correct,3,1010,3015,3350,0,0.195105235790153,1.22383943632567,2750,-0.660093041157176,900,0.00147796591531124,0.611403824399944,0,NaN
209154863,123,b_0,red,red,Y,no_color_change,figure_change,not_first,update,correct,12,1019,3025,3175,0,0.0337577330132394,0.74564774734915,1975,-0.595759694617122,2700,0.00373674401229775,-0.000752926032328322,0,NaN
209154863,124,b_0,red,red,X,no_color_change,figure_change,not_first,update,correct,22,1028,3034,2600,0,0.64098083968556,1.19927173875229,1350,0.0423311747064591,50,0.0423311747064591,0.222447813329001,0,NaN
209154863,127,b_0,red,red,Y,no_color_change,no_figure_change,not_first,update,correct,187,1196,3201,3375,0,-0.126151528893617,0.502564183504483,3375,-1.07241764537964,875,-0.197963774203658,0.502564183504483,1,125
209154863,129,b_0,blue,red,X,no_color_change,no_figure_change,not_first,no_update,correct,6,1013,3018,3500,0,1.22437343527508,2.33471208165275,2200,0.138956682188594,75,0.170133397156856,0.879557036506209,0,NaN
209154863,130,b_0,blue,red,X,no_color_change,no_figure_change,not_first,no_update,correct,16,1024,3029,3525,0,NaN,NaN,25,NaN,25,NaN,NaN,0,NaN
209154863,131,b_0,blue,red,X,no_color_change,no_figure_change,not_first,no_update,correct,4,1011,3016,3275,0,-0.0970782848841032,0.567120619239301,1275,-0.873617286695619,3250,-0.00580031906386247,-0.691353414573474,1,275
209154863,137,b_1,red,red,Y,no_color_change,figure_change,not_first,update,correct,21,1028,3033,3525,0,0.528019035217116,1.09659493686219,1500,-0.0813717837901499,325,-0.0352480927727037,0.69904999179283,1,150
209154863,138,b_1,red,red,Y,no_color_change,no_figure_change,not_first,update,correct,12,1019,3024,3400,0,0.269700581236552,0.621777471956468,2750,-0.144143505966856,3275,0.491047203824794,0.143948302921437,0,NaN
209154863,139,b_1,red,red,Y,no_color_change,no_figure_change,not_first,update,correct,21,1029,3033,3250,0,0.374874792704515,0.989456351076799,2100,-0.349859629688561,150,0.0616005039041949,0.891101902335244,0,NaN
209154863,142,b_2,blue,red,Y,no_color_change,figure_change,not_first,no_update,correct,6,1016,3021,3325,0,0.596839860386846,1.20286905201786,625,-0.286000347687381,2675,0.16472348418383,0.896595473756306,0,NaN
209154863,148,b_3,blue,red,Y,no_color_change,no_figure_change,not_first,no_update,correct,7,1015,3021,3525,0,-0.0151403061442735,0.373646515080269,1300,-0.365698962516801,1950,0.238593893800042,0.0657276540073281,1,300
209154863,149,b_3,blue,red,X,no_color_change,figure_change,not_first,no_update,correct,19,1025,3030,3525,0,0.151252392994035,0.736166456571682,1500,-0.796651514502057,775,0.192804836574742,0.419825978396404,0,NaN
209154863,150,b_3,blue,red,Y,no_color_change,figure_change,not_first,no_update,correct,5,1011,3017,3325,0,-0.528961044738691,0.0456217403292289,50,-1.43150759050156,2375,0.0456217403292289,-0.34046199735913,0,NaN
209154863,185,b_2,blue,red,X,no_color_change,figure_change,not_first,no_update,correct,2,1011,3015,3500,0,-0.0657226594731181,0.410902410605845,3275,-0.594393273299195,400,-0.015086406795912,0.250278190375802,0,NaN
209154863,186,b_2,blue,red,Y,no_color_change,figure_change,not_first,no_update,correct,14,1021,3026,3525,0,0.351616040886143,1.28312538983419,2675,-0.843137725460995,600,-0.025599485099163,0.564778182694279,0,NaN
209154863,187,b_2,blue,red,X,no_color_change,figure_change,not_first,no_update,correct,21,1029,3036,3525,0,-1.48232397118122,0.0347461420844848,100,-2.36204050801133,1775,0.0347461420844848,-1.250582253548,0,NaN
209154863,188,b_2,blue,red,X,no_color_change,no_figure_change,not_first,no_update,correct,12,1020,3026,3375,0,-0.376898997379675,1.36589148109162,2225,-1.54659372885041,875,-0.0363077664478325,-0.849439995213076,0,NaN
211335542,6,b_1,blue,blue,X,no_color_change,figure_change,not_first,update,correct,14,1024,3029,3200,0,-0.257706518963552,0.717549937958239,1700,-1.03531935175491,2975,0,-0.516052232899512,0,NaN
211335542,7,b_1,blue,blue,X,no_color_change,no_figure_change,not_first,update,correct,18,1026,3031,3475,0,0.391669596674823,0.967775228191502,2675,-0.276637784655164,625,0.140383353407098,0.620126286098935,0,NaN
211335542,8,b_1,blue,blue,Y,no_color_change,figure_change,not_first,update,correct,9,1016,3022,3350,0,-0.139010774014167,0.809520891088439,875,-1.82022430233797,2750,0.140667019814971,-1.3171261687313,0,NaN
211335542,9,b_1,blue,blue,X,no_color_change,figure_change,not_first,update,correct,16,1022,3027,3425,0,0.286039190952636,1.43563569024246,2800,-1.03780931244623,2725,0.252305510557661,0.636894122653173,1,275
211335542,10,b_1,blue,blue,Y,no_color_change,figure_change,not_first,update,correct,6,1013,3017,3325,0,0.0240482264175772,1.54557218253792,2625,-1.76137928194932,2250,-0.177386060389571,0.242881482118343,1,225
211335542,17,b_2,blue,blue,Y,no_color_change,no_figure_change,not_first,update,correct,14,1023,3027,3525,0,0.660111811447343,1.20690601002798,2850,-0.0434639973840117,400,0.0790798908168858,0.931718075901937,0,NaN
211335542,22,b_2,blue,blue,Y,no_color_change,no_figure_change,not_first,update,correct,21,1028,3033,3375,0,NaN,NaN,25,NaN,25,NaN,NaN,2,162.5
211335542,25,b_3,blue,blue,Y,no_color_change,no_figure_change,not_first,update,correct,10,1017,3023,3400,0,-0.754395815036001,0.573825624636199,2725,-1.8206340427049,2200,-0.0271689381762278,-0.861778547116497,0,NaN
211335542,27,b_3,red,blue,X,no_color_change,no_figure_change,not_first,no_update,correct,9,1016,3020,3475,0,0.885110298274945,2.36621910051291,2750,-0.467230092255686,2650,0,0.711782054331499,1,350
211335542,28,b_3,red,blue,X,no_color_change,no_figure_change,not_first,no_update,correct,19,1026,3031,3375,0,0.404900753659942,1.71920754264562,3125,-1.44846371557625,2500,0.330061624804475,1.71920754264562,2,125
211335542,31,b_3,red,blue,X,no_color_change,no_figure_change,not_first,no_update,correct,5,1011,3017,3250,0,-1.04444715764003,0.141171315651188,2100,-2.2969414600125,450,-0.505840242216102,-1.07749109105861,1,275
211335542,35,b_0,red,blue,X,no_color_change,figure_change,not_first,no_update,correct,23,1032,3036,3325,0,0.674395279300375,1.66912466241125,1050,-0.189457641969032,125,-0.108202975358457,0.146119718544074,0,NaN
211335542,36,b_0,red,blue,Y,no_color_change,figure_change,not_first,no_update,correct,20,1027,3031,3400,0,0.128988656813448,0.936225219938133,2800,-0.74002262115969,600,0.27109053045677,0.285305369340156,1,125
211335542,38,b_0,blue,blue,X,no_color_change,no_figure_change,not_first,update,correct,10,1016,3020,3450,0,0.873132354685375,1.64684109014838,1500,-0.489072405661864,200,-0.473817456616279,0.0528880258233297,2,162.5
211335542,39,b_0,blue,blue,Y,no_color_change,figure_change,not_first,update,correct,21,1027,3032,3475,0,-0.166936155944721,0.817432032019105,1450,-1.01647129487627,2975,-0.636452863796483,-0.599576230773065,0,NaN
211335542,41,b_0,red,blue,X,no_color_change,figure_change,not_first,no_update,correct,19,1025,3030,3200,0,-1.68034791367147,1.03698983171238,100,-3.89347904049817,575,-1.42731480894487,-2.18334882290447,0,NaN
